[{"internal_node_id": "0.0-0.0", "trial_type": "survey-text", "responses": "{\"ID\":\"SI_56\"}", "rt": 248256, "time_elapsed": 248261, "trial_index": 0}, {"internal_node_id": "0.0-1.0", "trial_type": "survey-html-form", "responses": "{\"useful_question\":\"5\",\"enjoy_question\":\"5\",\"easy_to_follow_question\":\"5\",\"comment\":\"This video discussed Joey King and fun concepts. The captions were clear and of high quality\"}", "rt": 169277, "time_elapsed": 417554, "trial_index": 1}, {"internal_node_id": "0.0-2.0", "trial_type": "survey-html-form", "responses": "{\"useful_question\":\"2\",\"enjoy_question\":\"3\",\"easy_to_follow_question\":\"2\",\"comment\":\"This showed a talk show where the male was giving advice to the young girl. The captions were confusing, with the male or female speakers distracting.\"}", "rt": 109625, "time_elapsed": 527197, "trial_index": 2}, {"internal_node_id": "0.0-3.0", "trial_type": "survey-html-form", "responses": "{\"useful_question\":\"2\",\"enjoy_question\":\"2\",\"easy_to_follow_question\":\"2\",\"comment\":\"The topic focused on homework aspects. I didnt like the caps of the videos.\"}", "rt": 124245, "time_elapsed": 651462, "trial_index": 3}, {"internal_node_id": "0.0-4.0", "trial_type": "survey-html-form", "responses": "{\"useful_question\":\"2\",\"enjoy_question\":\"1\",\"easy_to_follow_question\":\"2\",\"comment\":\"This video focused on how they felt about facial expressions. Changing colors was very distracting for me\"}", "rt": 91690, "time_elapsed": 743168, "trial_index": 4}, {"internal_node_id": "0.0-5.0", "trial_type": "survey-html-form", "responses": "{\"useful_question\":\"3\",\"enjoy_question\":\"2\",\"easy_to_follow_question\":\"4\",\"comment\":\"This was a talk show with the two discussing kid aspects at home. the captions were too large and glaring.\"}", "rt": 102056, "time_elapsed": 845246, "trial_index": 5}, {"internal_node_id": "0.0-6.0", "trial_type": "survey-html-form", "responses": "{\"useful_question\":\"4\",\"enjoy_question\":\"4\",\"easy_to_follow_question\":\"4\",\"comment\":\"The discussion focused on technology and AI and impact on humans. Captions good but I prefer the speakers be named rather than male speaker 1 male speaker 2 that is confusing.\"}", "rt": 112364, "time_elapsed": 957631, "trial_index": 6}, {"internal_node_id": "0.0-7.0", "trial_type": "survey-html-form", "responses": "{\"useful_question\":\"5\",\"enjoy_question\":\"5\",\"easy_to_follow_question\":\"5\",\"comment\":\"Interviewer interviewing young man about his likes dislikes. I appreciated the names of the speakers and the captions were easy to follow.\"}", "rt": 93188, "time_elapsed": 1050837, "trial_index": 7}, {"internal_node_id": "0.0-8.0", "trial_type": "survey-html-form", "responses": "{\"useful_question\":\"3\",\"enjoy_question\":\"2\",\"easy_to_follow_question\":\"2\",\"comment\":\"Two females discussing the film of Mr Rogers and his neighborhood. Did not like the caps and the changing of the colors I prefer speakers to be named.\"}", "rt": 103691, "time_elapsed": 1154551, "trial_index": 8}, {"internal_node_id": "0.0-9.0", "trial_type": "survey-html-form", "responses": "{\"useful_question\":\"4\",\"enjoy_question\":\"3\",\"easy_to_follow_question\":\"4\",\"comment\":\"Two guys being interviewed by Ellen DG. I find the bold captions distracting and \u201cin my face\u201d.\"}", "rt": 98907, "time_elapsed": 1253476, "trial_index": 9}, {"internal_node_id": "0.0-10.0", "trial_type": "survey-html-form", "responses": "{\"useful_question\":\"3\",\"enjoy_question\":\"3\",\"easy_to_follow_question\":\"3\",\"comment\":\"Interview between a male and two females, again no names. I find it distracting to see male speaker, etc, and the captions were really not that clear, maybe because of the way the male was speaking???\"}", "rt": 115566, "time_elapsed": 1369061, "trial_index": 10}, {"internal_node_id": "0.0-11.0", "trial_type": "survey-html-form", "responses": "{\"useful_question\":\"4\",\"enjoy_question\":\"3\",\"easy_to_follow_question\":\"4\",\"comment\":\"Jenna  Hodda chatting about Nashville and the warm atmosphere there. I appreciated the names attached with the speakers but again did not like the caps.\"}", "rt": 109555, "time_elapsed": 1478636, "trial_index": 11}, {"internal_node_id": "0.0-12.0", "trial_type": "survey-html-form", "responses": "{\"useful_question\":\"2\",\"enjoy_question\":\"2\",\"easy_to_follow_question\":\"3\",\"comment\":\"two guys being interviewed and talking about their experiences. the font is good but the color changes are distracting, I did not know which guy was talking.\"}", "rt": 105326, "time_elapsed": 1583977, "trial_index": 12}, {"internal_node_id": "0.0-13.0", "trial_type": "survey-html-form", "responses": "{}", "rt": 4576, "time_elapsed": 1588553, "trial_index": 13}]