[{"time_elapsed": 213368, "trial_type": "survey-text", "trial_index": 0, "rt": 213163.1850000001, "internal_node_id": "0.0-0.0", "responses": "{\"ID\":\"SI_75\"}"}, {"time_elapsed": 462435, "trial_type": "survey-html-form", "trial_index": 1, "rt": 249037.52000000005, "internal_node_id": "0.0-1.0", "responses": "{\"useful_question\":\"4\",\"enjoy_question\":\"4\",\"easy_to_follow_question\":\"2\",\"comment\":\"In the video, questions were asked of each participants to answer. I think the captions did not fully capture what each person was saying. Some words spoken were not captioned. Some appeared in the caption later making it difficult for viewers to go with the flow\"}"}, {"time_elapsed": 1889128, "trial_type": "survey-html-form", "trial_index": 2, "rt": 1426588.3600000003, "internal_node_id": "0.0-2.0", "responses": "{\"useful_question\":\"4\",\"enjoy_question\":\"4\",\"easy_to_follow_question\":\"3\",\"comment\":\"The video features a parent and his daughter being interviewed by TV personalities about the behavior and character of each other. Regarding the captioning, well, it's close to capturing everything said, but not all. For example, when the girl mentioned \\\"I mean like\\\", it was not shown at first, but shown later.\"}"}, {"time_elapsed": 2420549, "trial_type": "survey-html-form", "trial_index": 3, "rt": 531387.2749999999, "internal_node_id": "0.0-3.0", "responses": "{\"useful_question\":\"2\",\"enjoy_question\":\"2\",\"easy_to_follow_question\":\"2\",\"comment\":\"The video was about the problem faced by students in maths homework being too much. The captions are not helpful because the captions do not reflect the spoken words at the same time. Words spoken appeared later in the captions. Not helpful. Another issue is that a title shown on the screen \\\"Too Much Homework\\\" overlap the captioning and makes it difficult to read the captions\"}"}, {"time_elapsed": 2536168, "trial_type": "survey-html-form", "trial_index": 4, "rt": 115593.43000000017, "internal_node_id": "0.0-4.0", "responses": "{\"useful_question\":\"5\",\"enjoy_question\":\"5\",\"easy_to_follow_question\":\"5\",\"comment\":\"Not sure what the topic of the video is. However, the captions match the voice pretty well\"}"}, {"time_elapsed": 2652727, "trial_type": "survey-html-form", "trial_index": 5, "rt": 116519.7099999995, "internal_node_id": "0.0-5.0", "responses": "{\"useful_question\":\"4\",\"enjoy_question\":\"4\",\"easy_to_follow_question\":\"4\",\"comment\":\"Video talking about the man's wife and family. The captions are good. But the emojis do not help in knowing who is speaking what\"}"}, {"time_elapsed": 2829587, "trial_type": "survey-html-form", "trial_index": 6, "rt": 176836.7999999998, "internal_node_id": "0.0-6.0", "responses": "{\"useful_question\":\"4\",\"enjoy_question\":\"4\",\"easy_to_follow_question\":\"4\",\"comment\":\"Talking about technology advances. Captions are good, however, the captions need to be paced with the speech and be made synchronous \"}"}, {"time_elapsed": 2929568, "trial_type": "survey-html-form", "trial_index": 7, "rt": 99960.56000000052, "internal_node_id": "0.0-7.0", "responses": "{\"useful_question\":\"3\",\"enjoy_question\":\"3\",\"easy_to_follow_question\":\"2\",\"comment\":\"Video talking about the man's hobbies. The captions are not synchronous. Not paced with the speech.\"}"}, {"time_elapsed": 3037526, "trial_type": "survey-html-form", "trial_index": 8, "rt": 107944.8450000002, "internal_node_id": "0.0-8.0", "responses": "{\"useful_question\":\"5\",\"enjoy_question\":\"5\",\"easy_to_follow_question\":\"5\",\"comment\":\"Video talking about some interesting scenery. The captions are perfectly synchronous and well paced. Thumbs up on this!\"}"}, {"time_elapsed": 3162751, "trial_type": "survey-html-form", "trial_index": 9, "rt": 125209.5549999997, "internal_node_id": "0.0-9.0", "responses": "{\"useful_question\":\"5\",\"enjoy_question\":\"5\",\"easy_to_follow_question\":\"5\",\"comment\":\"Talking about how the two friends met and their experience. The captions are perfectly synchronous. However, I don't like the emojis in the captions. \"}"}, {"time_elapsed": 3254285, "trial_type": "survey-html-form", "trial_index": 10, "rt": 91518.06000000006, "internal_node_id": "0.0-10.0", "responses": "{\"useful_question\":\"3\",\"enjoy_question\":\"3\",\"easy_to_follow_question\":\"3\",\"comment\":\"Talking about meeting encounters. The captions are not synchronous. slow paced, and not quite helpful\"}"}, {"time_elapsed": 3392339, "trial_type": "survey-html-form", "trial_index": 11, "rt": 138039.8299999996, "internal_node_id": "0.0-11.0", "responses": "{\"useful_question\":\"3\",\"enjoy_question\":\"3\",\"easy_to_follow_question\":\"2\",\"comment\":\"Not sure what is being talked about because it's hard to follow the caption and the speech. The captions are not synchronous and not useful. \"}"}, {"time_elapsed": 3540790, "trial_type": "survey-html-form", "trial_index": 12, "rt": 148429.68500000006, "internal_node_id": "0.0-12.0", "responses": "{\"useful_question\":\"5\",\"enjoy_question\":\"5\",\"easy_to_follow_question\":\"5\",\"comment\":\"Talking about movie character and their real life relationship. The captions are wow! I like the use of different font colors which helps viewers to know who is speaking what. The captions are synchronous. It's great!\"}"}, {"time_elapsed": 3545920, "trial_type": "survey-html-form", "trial_index": 13, "rt": 5126.800000000279, "internal_node_id": "0.0-13.0", "responses": "{}"}]