[{"trial_index": 0, "responses": "{\"ID\":\"SI_53\"}", "internal_node_id": "0.0-0.0", "rt": 67557.30500000027, "time_elapsed": 67618, "trial_type": "survey-text"}, {"trial_index": 1, "responses": "{\"useful_question\":\"2\",\"enjoy_question\":\"4\",\"easy_to_follow_question\":\"2\",\"comment\":\"The video was about castmates answering some questions. The captions with emojis at the front of them actually made it more confusing for me.\"}", "internal_node_id": "0.0-1.0", "rt": 131700.76999999944, "time_elapsed": 199324, "trial_type": "survey-html-form"}, {"trial_index": 2, "responses": "{\"useful_question\":\"4\",\"enjoy_question\":\"5\",\"easy_to_follow_question\":\"4\",\"comment\":\"The video was an interview of two actors and their friendship on set. The captions were pleasant to follow, and because I got to see who started talking first, it was so easy to keep track of who's talking.\"}", "internal_node_id": "0.0-2.0", "rt": 100681.90999999933, "time_elapsed": 300015, "trial_type": "survey-html-form"}, {"trial_index": 3, "responses": "{\"useful_question\":\"4\",\"enjoy_question\":\"4\",\"easy_to_follow_question\":\"3\",\"comment\":\"The video was about some TV anchors discussing homework. While I initially thought that this would be the best approach, it was a little hard to follow because I don't know their names.\"}", "internal_node_id": "0.0-3.0", "rt": 85159.32000000065, "time_elapsed": 385240, "trial_type": "survey-html-form"}, {"trial_index": 4, "responses": "{\"useful_question\":\"5\",\"enjoy_question\":\"5\",\"easy_to_follow_question\":\"5\",\"comment\":\"They were discussing facial expressions such as nose flares and the such. The captions were perfect--so easy to keep track of who's talking--but the only con is that we have to memorize which color corresponds to which person.\"}", "internal_node_id": "0.0-4.0", "rt": 92240.70000000024, "time_elapsed": 477495, "trial_type": "survey-html-form"}, {"trial_index": 5, "responses": "{\"useful_question\":\"5\",\"enjoy_question\":\"5\",\"easy_to_follow_question\":\"5\",\"comment\":\"They discussed Steph Curry's home life and his two girls. The emojis seem to work best when it's just two people because it's easier to identify so I do like this approach too.\"}", "internal_node_id": "0.0-5.0", "rt": 98467.50999999855, "time_elapsed": 575969, "trial_type": "survey-html-form"}, {"trial_index": 6, "responses": "{\"useful_question\":\"4\",\"enjoy_question\":\"4\",\"easy_to_follow_question\":\"4\",\"comment\":\"The two men were discussing technology and AIs and disconnection. The captions were sufficient in keeping track of who's talking.\"}", "internal_node_id": "0.0-6.0", "rt": 95369.00000000058, "time_elapsed": 671348, "trial_type": "survey-html-form"}, {"trial_index": 7, "responses": "{\"useful_question\":\"5\",\"enjoy_question\":\"5\",\"easy_to_follow_question\":\"5\",\"comment\":\"The interviewer was asking Nick Jonas some questions. The captions with some names or the roles were nice because I know who Nick Jonas is.\"}", "internal_node_id": "0.0-7.0", "rt": 82311.50999999954, "time_elapsed": 753669, "trial_type": "survey-html-form"}, {"trial_index": 8, "responses": "{\"useful_question\":\"5\",\"enjoy_question\":\"5\",\"easy_to_follow_question\":\"5\",\"comment\":\"They were talking about Mister Rogers and a new film capturing that. The captions were the best.\"}", "internal_node_id": "0.0-8.0", "rt": 92683.44000000076, "time_elapsed": 846361, "trial_type": "survey-html-form"}, {"trial_index": 9, "responses": "{\"useful_question\":\"4\",\"enjoy_question\":\"4\",\"easy_to_follow_question\":\"4\",\"comment\":\"The video was an interview on Ellen's show with two musicians. The emojis were pleasant but they were only easy to follow because one of them was talking most of the time--if it was quick conversations, this wouldn't be the best method.\"}", "internal_node_id": "0.0-9.0", "rt": 114144.75999999931, "time_elapsed": 960513, "trial_type": "survey-html-form"}, {"trial_index": 10, "responses": "{\"useful_question\":\"4\",\"enjoy_question\":\"4\",\"easy_to_follow_question\":\"4\",\"comment\":\"This was an interview of two women who have a passion for movies. The captions worked well enough for its purposes.\"}", "internal_node_id": "0.0-10.0", "rt": 93042.48999999987, "time_elapsed": 1053563, "trial_type": "survey-html-form"}, {"trial_index": 11, "responses": "{\"useful_question\":\"4\",\"enjoy_question\":\"3\",\"easy_to_follow_question\":\"4\",\"comment\":\"The video was of three ladies discussing someone's move to Tennessee. The captions were okay--I didn't know their names so it took some context clues to figure out who's who.\"}", "internal_node_id": "0.0-11.0", "rt": 91006.94000000111, "time_elapsed": 1144576, "trial_type": "survey-html-form"}, {"trial_index": 12, "responses": "{\"useful_question\":\"5\",\"enjoy_question\":\"5\",\"easy_to_follow_question\":\"5\",\"comment\":\"They were interviewing the actors for Iron Man and Captain America. The captions were smooth and on time, the colors shifting perfectly.\"}", "internal_node_id": "0.0-12.0", "rt": 80272.38000000035, "time_elapsed": 1224853, "trial_type": "survey-html-form"}, {"trial_index": 13, "responses": "{}", "internal_node_id": "0.0-13.0", "rt": 4166.579999999143, "time_elapsed": 1229020, "trial_type": "survey-html-form"}]