[{"rt": 306322.44000000355, "time_elapsed": 306367, "trial_index": 0, "trial_type": "survey-text", "responses": "{\"ID\":\"SI_81\"}", "internal_node_id": "0.0-0.0"}, {"rt": 143126.5049999929, "time_elapsed": 449495, "trial_index": 1, "trial_type": "survey-html-form", "responses": "{\"useful_question\":\"4\",\"enjoy_question\":\"5\",\"easy_to_follow_question\":\"3\",\"comment\":\"A group of friends played a \\\"best friend forever\\\" type of challenge and had to answer questions about each other; the captions were helpful in seeing what is being said but not with who is saying what.\"}", "internal_node_id": "0.0-1.0"}, {"rt": 114550.17999999109, "time_elapsed": 564047, "trial_index": 2, "trial_type": "survey-html-form", "responses": "{\"useful_question\":\"5\",\"enjoy_question\":\"4\",\"easy_to_follow_question\":\"3\",\"comment\":\"News/talk show discussing actors' personalities and their characters' personalities; captions were helpful in identifying different female speakers by number, but the flow was a bit too concentrated instead of spaced out between numbers.\"}", "internal_node_id": "0.0-2.0"}, {"rt": 95594.9549999932, "time_elapsed": 659646, "trial_index": 3, "trial_type": "survey-html-form", "responses": "{\"useful_question\":\"4\",\"enjoy_question\":\"2\",\"easy_to_follow_question\":\"3\",\"comment\":\"News show discussed homework and time, but was not clear; the captions were jumbled together and only separated by \\\">>\\\" which is stressful on my eyes.\"}", "internal_node_id": "0.0-3.0"}, {"rt": 80519.49999999488, "time_elapsed": 740174, "trial_index": 4, "trial_type": "survey-html-form", "responses": "{\"useful_question\":\"3\",\"enjoy_question\":\"2\",\"easy_to_follow_question\":\"3\",\"comment\":\"News show discussed facial expressions and what they mean; captions took on different colors for each speaker, but some colors were very difficult to read.\"}", "internal_node_id": "0.0-4.0"}, {"rt": 94081.70500000415, "time_elapsed": 834264, "trial_index": 5, "trial_type": "survey-html-form", "responses": "{\"useful_question\":\"4\",\"enjoy_question\":\"3\",\"easy_to_follow_question\":\"4\",\"comment\":\"Talk show host and celebrity discussed personal lives; captions separated speakers with a smile emoji which I was not used to seeing in captions.\"}", "internal_node_id": "0.0-5.0"}, {"rt": 94298.19500001031, "time_elapsed": 928559, "trial_index": 6, "trial_type": "survey-html-form", "responses": "{\"useful_question\":\"4\",\"enjoy_question\":\"3\",\"easy_to_follow_question\":\"4\",\"comment\":\"A very boring/slow interview regarding science/technology; captions were helpful but could have used names instead of saying [male speaker 1] and [male speaker 2].\"}", "internal_node_id": "0.0-6.0"}, {"rt": 77831.38499999768, "time_elapsed": 1006391, "trial_index": 7, "trial_type": "survey-html-form", "responses": "{\"useful_question\":\"4\",\"enjoy_question\":\"4\",\"easy_to_follow_question\":\"4\",\"comment\":\"News/talk show host interviewing a celebrity; captions were helpful in identifying names but had \\\">>\\\" again which is stressful on my eyes.\"}", "internal_node_id": "0.0-7.0"}, {"rt": 76198.65000000561, "time_elapsed": 1082592, "trial_index": 8, "trial_type": "survey-html-form", "responses": "{\"useful_question\":\"4\",\"enjoy_question\":\"3\",\"easy_to_follow_question\":\"4\",\"comment\":\"Talk show hosts discuss a film about Mister Rogers; captions used two different colors to distinguish between two speakers, but colors can be hard to read.\"}", "internal_node_id": "0.0-8.0"}, {"rt": 101416.07500000088, "time_elapsed": 1184012, "trial_index": 9, "trial_type": "survey-html-form", "responses": "{\"useful_question\":\"4\",\"enjoy_question\":\"3\",\"easy_to_follow_question\":\"3\",\"comment\":\"Talk show host interviewed two musicians' personal and professional lives; captions were separated by different types of smiling emojis, which is just as awkward on my eyes as \\\">>\\\"\"}", "internal_node_id": "0.0-9.0"}, {"rt": 83318.76499998895, "time_elapsed": 1267334, "trial_index": 10, "trial_type": "survey-html-form", "responses": "{\"useful_question\":\"3\",\"enjoy_question\":\"3\",\"easy_to_follow_question\":\"3\",\"comment\":\"Boring interview on what appears to be a talk show but it was not clear who the people were; captions appeared to be behind or slow which lost my train of thought\"}", "internal_node_id": "0.0-10.0"}, {"rt": 85700.5799999896, "time_elapsed": 1353039, "trial_index": 11, "trial_type": "survey-html-form", "responses": "{\"useful_question\":\"3\",\"enjoy_question\":\"3\",\"easy_to_follow_question\":\"4\",\"comment\":\"Talk show hosts discussing a recent trip somebody took? Captions appeared slow and jumbled which made me lose interest in following the discussion\"}", "internal_node_id": "0.0-11.0"}, {"rt": 89752.77500000084, "time_elapsed": 1442795, "trial_index": 12, "trial_type": "survey-html-form", "responses": "{\"useful_question\":\"4\",\"enjoy_question\":\"5\",\"easy_to_follow_question\":\"2\",\"comment\":\"Talk show host discussed actors' personal lives in contrast with their relationship in a movie; captions seemed to follow in time and the colors were not too difficult to read\"}", "internal_node_id": "0.0-12.0"}, {"rt": 5717.909999992233, "time_elapsed": 1448514, "trial_index": 13, "trial_type": "survey-html-form", "responses": "{}", "internal_node_id": "0.0-13.0"}]