[{"responses": "{\"ID\":\"SI_61\"}", "trial_type": "survey-text", "time_elapsed": 141621, "internal_node_id": "0.0-0.0", "rt": 141433.85000003036, "trial_index": 0}, {"responses": "{\"useful_question\":\"2\",\"enjoy_question\":\"2\",\"easy_to_follow_question\":\"1\",\"comment\":\"Four twenty-somethings gossiping about famous people. The captions were difficult to follow and know who was talking and what was happening.\"}", "trial_type": "survey-html-form", "time_elapsed": 255546, "internal_node_id": "0.0-1.0", "rt": 113903.15999998711, "trial_index": 1}, {"responses": "{\"useful_question\":\"4\",\"enjoy_question\":\"2\",\"easy_to_follow_question\":\"2\",\"comment\":\"Two interviewers talking with actors about each other. The captions gave content but were hard to assign to who was speaking, especially people off camera\"}", "trial_type": "survey-html-form", "time_elapsed": 345509, "internal_node_id": "0.0-2.0", "rt": 89951.6500000027, "trial_index": 2}, {"responses": "{\"useful_question\":\"2\",\"enjoy_question\":\"2\",\"easy_to_follow_question\":\"2\",\"comment\":\"People on a morning show were discussing math maybe. There was too much information in the captions and they weren't spaced and pause so hard to follow\"}", "trial_type": "survey-html-form", "time_elapsed": 437218, "internal_node_id": "0.0-3.0", "rt": 91698.82499997038, "trial_index": 3}, {"responses": "{\"useful_question\":\"1\",\"enjoy_question\":\"1\",\"easy_to_follow_question\":\"2\",\"comment\":\"I'm not sure what the panelists were discussing. Captions were so distracting I didn't pay attention to the conversation.\"}", "trial_type": "survey-html-form", "time_elapsed": 588935, "internal_node_id": "0.0-4.0", "rt": 151694.92500001797, "trial_index": 4}, {"responses": "{\"useful_question\":\"4\",\"enjoy_question\":\"4\",\"easy_to_follow_question\":\"4\",\"comment\":\"Interview with a new dad about his wife and their children. Captions were large and aligned with the interviewer and interviewee which made it easier to follow but I didn't use the emojis\"}", "trial_type": "survey-html-form", "time_elapsed": 688554, "internal_node_id": "0.0-5.0", "rt": 99606.47499997867, "trial_index": 5}, {"responses": "{\"useful_question\":\"4\",\"enjoy_question\":\"3\",\"easy_to_follow_question\":\"4\",\"comment\":\"They were discussing technology and AI and some of the risks. Captions were clear and easy to read and I could follow who was talking (Man One and Man Two) because of how they aligned with each speaker.\"}", "trial_type": "survey-html-form", "time_elapsed": 784490, "internal_node_id": "0.0-6.0", "rt": 95921.34999996051, "trial_index": 6}, {"responses": "{\"useful_question\":\"2\",\"enjoy_question\":\"2\",\"easy_to_follow_question\":\"2\",\"comment\":\"Nick Jonas was answering rapid-fire questions with a timer. Concepts were split up over two screens which made it hard to grasp the full concepts; and interviewer and interviewee captions weren't separated - also hard to follow\"}", "trial_type": "survey-html-form", "time_elapsed": 882310, "internal_node_id": "0.0-7.0", "rt": 97810.95499999356, "trial_index": 7}, {"responses": "{\"useful_question\":\"4\",\"enjoy_question\":\"2\",\"easy_to_follow_question\":\"2\",\"comment\":\"Hoda and Jenny were discussing the new Mr. Rogers film. The colors were still distracting but I was more comfortable with them this time - the different colors weren't helpful with just two people.\"}", "trial_type": "survey-html-form", "time_elapsed": 973755, "internal_node_id": "0.0-8.0", "rt": 91433.62500000512, "trial_index": 8}, {"responses": "{\"useful_question\":\"4\",\"enjoy_question\":\"4\",\"easy_to_follow_question\":\"5\",\"comment\":\"Two musicians talking with Ellen about recording and producing an album. The large captions and the alignment with the person speaking both were helpful.\"}", "trial_type": "survey-html-form", "time_elapsed": 1061557, "internal_node_id": "0.0-9.0", "rt": 87782.4949999922, "trial_index": 9}, {"responses": "{\"useful_question\":\"2\",\"enjoy_question\":\"1\",\"easy_to_follow_question\":\"1\",\"comment\":\"Interviewer asking questions. Captions were in small bites and not full thoughts on the screen and the choppiness made it hard to follow. Also times when the captions were for someone who wasn't on the screen which was very distracting\"}", "trial_type": "survey-html-form", "time_elapsed": 1167493, "internal_node_id": "0.0-10.0", "rt": 105923.57500002254, "trial_index": 10}, {"responses": "{\"useful_question\":\"2\",\"enjoy_question\":\"2\",\"easy_to_follow_question\":\"3\",\"comment\":\"Kathie Lee Gifford was sharing what it was like to live in Nashville. I could follow the captions but there weren't full concepts on the screen and sometimes concepts from two people which made it harder to follow.\"}", "trial_type": "survey-html-form", "time_elapsed": 1272572, "internal_node_id": "0.0-11.0", "rt": 105068.414999987, "trial_index": 11}, {"responses": "{\"useful_question\":\"3\",\"enjoy_question\":\"2\",\"easy_to_follow_question\":\"3\",\"comment\":\"Two actors talking about being in a new Marvel film. The colors were still distracting but I was able to use them to follow who was speaking. The contrast made it harder\"}", "trial_type": "survey-html-form", "time_elapsed": 1369523, "internal_node_id": "0.0-12.0", "rt": 96936.45999999717, "trial_index": 12}, {"responses": "{}", "trial_type": "survey-html-form", "time_elapsed": 1375243, "internal_node_id": "0.0-13.0", "rt": 5718.194999964908, "trial_index": 13}]