[{"rt": 169805.37000000005, "time_elapsed": 169854, "responses": "{\"ID\":\"Sl_75\"}", "trial_index": 0, "trial_type": "survey-text", "internal_node_id": "0.0-0.0"}, {"rt": 171877.51000000024, "time_elapsed": 341738, "responses": "{\"useful_question\":\"3\",\"enjoy_question\":\"4\",\"easy_to_follow_question\":\"3\",\"comment\":\"They talked about different people and who they liked. My opinion on the captions - I think its a good start - its difficult to follow multiple conversations, but I like the idea of using emojis. However it was hard to differentiate between different people since I did not have time to match emojis to individuals. I think emojis with \\\"gender\\\" would help me quickly identify \\\"oh the man is talking\\\", or \\\"oh the woman is talking\\\", reducing my guesswork.\"}", "trial_index": 1, "trial_type": "survey-html-form", "internal_node_id": "0.0-1.0"}, {"rt": 105061.90500000044, "time_elapsed": 446804, "responses": "{\"useful_question\":\"4\",\"enjoy_question\":\"4\",\"easy_to_follow_question\":\"4\",\"comment\":\"They talked about lying on television. It was a bit hard to follow as I found myself working hard to try and remember who is female \\\"1\\\", \\\"2\\\", \\\"3\\\". I didn't really have time to absorb the new information.\"}", "trial_index": 2, "trial_type": "survey-html-form", "internal_node_id": "0.0-2.0"}, {"rt": 84406.36999999965, "time_elapsed": 531214, "responses": "{\"useful_question\":\"4\",\"enjoy_question\":\"3\",\"easy_to_follow_question\":\"4\",\"comment\":\"They discussed homework/school. I thought this was easier to follow because even though I missed who was speaking (looking at the person), I was able to see the names on the captions and sort of follow it like reading a book.\"}", "trial_index": 3, "trial_type": "survey-html-form", "internal_node_id": "0.0-3.0"}, {"rt": 120094.23500000045, "time_elapsed": 651313, "responses": "{\"useful_question\":\"4\",\"enjoy_question\":\"4\",\"easy_to_follow_question\":\"4\",\"comment\":\"They were talking about facial expressions. I definitely liked assigning colors to individuals because when the colors changed, I automatically knew someone else was talking and it helped me separate them in my head and not see it as one long run-off sentence! Only suggestion I would have for this is to also add \\\"name\\\" at the beginning of the new talker along with the color.\"}", "trial_index": 4, "trial_type": "survey-html-form", "internal_node_id": "0.0-4.0"}, {"rt": 80990.05500000028, "time_elapsed": 732311, "responses": "{\"useful_question\":\"3\",\"enjoy_question\":\"4\",\"easy_to_follow_question\":\"3\",\"comment\":\"This example compared to the first one was easier to follow since it was only 2 people taking turns talking. But I found myself forgetting which smiley face is assigned to a certain person, I think it takes a bit more work.\"}", "trial_index": 5, "trial_type": "survey-html-form", "internal_node_id": "0.0-5.0"}, {"rt": 137070.8299999996, "time_elapsed": 869388, "responses": "{\"useful_question\":\"4\",\"enjoy_question\":\"4\",\"easy_to_follow_question\":\"4\",\"comment\":\"They discussed technology and its ramifications. I found this a bit easier to follow since there were only 2 people talking. So even though it said male 1, male 2, I was able to quickly look up and match the voice to the caption because they spoke slowly. The captions is not bad, I think I would have preferred \\\"names + color\\\".\"}", "trial_index": 6, "trial_type": "survey-html-form", "internal_node_id": "0.0-6.0"}, {"rt": 86061.51999999932, "time_elapsed": 955453, "responses": "{\"useful_question\":\"4\",\"enjoy_question\":\"4\",\"easy_to_follow_question\":\"4\",\"comment\":\"They asked Nick specific questions and Nick responded. I definitely liked the captions here better, it was easy to follow. Interviewer clearly implied the woman asking questions, and Nick clearly implied the responder.\"}", "trial_index": 7, "trial_type": "survey-html-form", "internal_node_id": "0.0-7.0"}, {"rt": 111638.44499999972, "time_elapsed": 1067096, "responses": "{\"useful_question\":\"4\",\"enjoy_question\":\"4\",\"easy_to_follow_question\":\"4\",\"comment\":\"They talked about Tom Hanks and Mr. Roger's Neighborhood. I liked the captions here, the change in color easily helped me understand the stoppage in a sentence and the start of a new one. Only suggestion I have which I forgot to mention before is to be careful with the color choice. It is hard to read that blue on a black background, \\\"dark on dark\\\" doesn't work well. Perhaps a lighter blue on a black background, a lighter red too.\"}", "trial_index": 8, "trial_type": "survey-html-form", "internal_node_id": "0.0-8.0"}, {"rt": 99142.51500000036, "time_elapsed": 1166243, "responses": "{\"useful_question\":\"3\",\"enjoy_question\":\"4\",\"easy_to_follow_question\":\"3\",\"comment\":\"They discussed Bruno Mars and how he met the man who is behind some of his music. I was only able to follow along because the conversation was slow so I'd quickly look up and see who's speaking. I still struggle to remember which emoji is who.\"}", "trial_index": 9, "trial_type": "survey-html-form", "internal_node_id": "0.0-9.0"}, {"rt": 87981.84000000055, "time_elapsed": 1254229, "responses": "{\"useful_question\":\"3\",\"enjoy_question\":\"3\",\"easy_to_follow_question\":\"3\",\"comment\":\"They discussed the women's experience and how they met. The conversation was slow and limited so it was easy to follow, but I didn't particularly enjoy this setup for some reason.\"}", "trial_index": 10, "trial_type": "survey-html-form", "internal_node_id": "0.0-10.0"}, {"rt": 94382.37999999989, "time_elapsed": 1348616, "responses": "{\"useful_question\":\"3\",\"enjoy_question\":\"2\",\"easy_to_follow_question\":\"3\",\"comment\":\"They discussed what they liked/enjoyed. I liked having the names in the captions, but I realized I did not like how the caption just continues on one line even if there are 2 names (2 peopel speaking). I would have preferred that if someone else starts speaking, the caption starts on a new line so it does not look like one long run-off sentence.\"}", "trial_index": 11, "trial_type": "survey-html-form", "internal_node_id": "0.0-11.0"}, {"rt": 90574.23499999987, "time_elapsed": 1439194, "responses": "{\"useful_question\":\"4\",\"enjoy_question\":\"4\",\"easy_to_follow_question\":\"2\",\"comment\":\"They discussed friendship and commitment to marvel world (contracts). Again, I liked the colors and how it would start on a new line. It made it so much easier to separate conversations. Yellow/white on black worked well. Dark blue on black is still problematic. I would also add names to the color as well.\"}", "trial_index": 12, "trial_type": "survey-html-form", "internal_node_id": "0.0-12.0"}, {"rt": 3134.6649999995716, "time_elapsed": 1442329, "responses": "{}", "trial_index": 13, "trial_type": "survey-html-form", "internal_node_id": "0.0-13.0"}]