[{"trial_type": "survey-text", "rt": 359679, "trial_index": 0, "time_elapsed": 359685, "responses": "{\"ID\":\"SI_64\"}", "internal_node_id": "0.0-0.0"}, {"trial_type": "survey-html-form", "rt": 447782, "trial_index": 1, "time_elapsed": 807486, "responses": "{\"useful_question\":\"4\",\"enjoy_question\":\"3\",\"easy_to_follow_question\":\"2\",\"comment\":\"Fast Hard to follow Icons were confusing. To be honest I dont remember what the contents were about\"}", "internal_node_id": "0.0-1.0"}, {"trial_type": "survey-html-form", "rt": 168699, "trial_index": 2, "time_elapsed": 976205, "responses": "{\"useful_question\":\"4\",\"enjoy_question\":\"3\",\"easy_to_follow_question\":\"3\",\"comment\":\"it was about an interview on lying.  Captions were hard to follow at the beginning due to semi opaque background. Needed time to get adjusted\"}", "internal_node_id": "0.0-2.0"}, {"trial_type": "survey-html-form", "rt": 132188, "trial_index": 3, "time_elapsed": 1108412, "responses": "{\"useful_question\":\"4\",\"enjoy_question\":\"4\",\"easy_to_follow_question\":\"4\",\"comment\":\"it was a discussion on e- education.  Captions were easier to follow. Guess its to to consistency of uppercase letters\"}", "internal_node_id": "0.0-3.0"}, {"trial_type": "survey-html-form", "rt": 177037, "trial_index": 4, "time_elapsed": 1285470, "responses": "{\"useful_question\":\"2\",\"enjoy_question\":\"3\",\"easy_to_follow_question\":\"2\",\"comment\":\"It was about facial expressions.  Took me a while to get familiar with colors. Some colors were hard to read some were easier. confusing\"}", "internal_node_id": "0.0-4.0"}, {"trial_type": "survey-html-form", "rt": 168227, "trial_index": 5, "time_elapsed": 1453717, "responses": "{\"useful_question\":\"4\",\"enjoy_question\":\"4\",\"easy_to_follow_question\":\"4\",\"comment\":\"it was a dialogue about having children at homes.  capitons were clear eventho lower cases were used. Still dont understand the symbols. Been ignoring them\"}", "internal_node_id": "0.0-5.0"}, {"trial_type": "survey-html-form", "rt": 104324, "trial_index": 6, "time_elapsed": 1558060, "responses": "{\"useful_question\":\"4\",\"enjoy_question\":\"4\",\"easy_to_follow_question\":\"4\",\"comment\":\"It was about Google and AI technology.  Captions were easy to follow eventho characters were thinner than usual\"}", "internal_node_id": "0.0-6.0"}, {"trial_type": "survey-html-form", "rt": 126749, "trial_index": 7, "time_elapsed": 1684823, "responses": "{\"useful_question\":\"3\",\"enjoy_question\":\"2\",\"easy_to_follow_question\":\"2\",\"comment\":\"Interview on cooking.  Hard to follow as symbols were in middle and not showing who they were for\"}", "internal_node_id": "0.0-7.0"}, {"trial_type": "survey-html-form", "rt": 154666, "trial_index": 8, "time_elapsed": 1839510, "responses": "{\"useful_question\":\"2\",\"enjoy_question\":\"2\",\"easy_to_follow_question\":\"1\",\"comment\":\"movie dialogue by Tom Hanks. colors very confusing. blue was hard to read  red easier but still difficult\"}", "internal_node_id": "0.0-8.0"}, {"trial_type": "survey-html-form", "rt": 129043, "trial_index": 9, "time_elapsed": 1968572, "responses": "{\"useful_question\":\"3\",\"enjoy_question\":\"3\",\"easy_to_follow_question\":\"3\",\"comment\":\"how the couple met\u2026. characters were clear but still hard to follow.  been ignoring icons\"}", "internal_node_id": "0.0-9.0"}, {"trial_type": "survey-html-form", "rt": 186285, "trial_index": 10, "time_elapsed": 2154871, "responses": "{\"useful_question\":\"2\",\"enjoy_question\":\"3\",\"easy_to_follow_question\":\"2\",\"comment\":\"talking about how two met, etc.  caps were not clear due to unnecessary additional words such as male talking\"}", "internal_node_id": "0.0-10.0"}, {"trial_type": "survey-html-form", "rt": 158962, "trial_index": 11, "time_elapsed": 2313851, "responses": "{\"useful_question\":\"3\",\"enjoy_question\":\"3\",\"easy_to_follow_question\":\"3\",\"comment\":\"talked about life in Nashville.  Hard to follow caps due to symbols in middle of lines\"}", "internal_node_id": "0.0-11.0"}, {"trial_type": "survey-html-form", "rt": 138772, "trial_index": 12, "time_elapsed": 2452648, "responses": "{\"useful_question\":\"4\",\"enjoy_question\":\"4\",\"easy_to_follow_question\":\"3\",\"comment\":\"talked about friendship behind the screen.  took time to match colors to each character. some colors easy to read. some arent\"}", "internal_node_id": "0.0-12.0"}, {"trial_type": "survey-html-form", "rt": 5455, "trial_index": 13, "time_elapsed": 2458104, "responses": "{}", "internal_node_id": "0.0-13.0"}]