[{"trial_type": "survey-text", "internal_node_id": "0.0-0.0", "rt": 50441.00500000059, "trial_index": 0, "time_elapsed": 50536, "responses": "{\"ID\":\"SI_55\u2029\"}"}, {"trial_type": "survey-html-form", "internal_node_id": "0.0-1.0", "rt": 182694.68499999493, "trial_index": 1, "time_elapsed": 233245, "responses": "{\"useful_question\":\"5\",\"enjoy_question\":\"4\",\"easy_to_follow_question\":\"4\",\"comment\":\"About his experiences in a decade ago. How he feels about the past experience? \"}"}, {"trial_type": "survey-html-form", "internal_node_id": "0.0-2.0", "rt": 132193.44499999715, "trial_index": 2, "time_elapsed": 365453, "responses": "{\"useful_question\":\"4\",\"enjoy_question\":\"2\",\"easy_to_follow_question\":\"3\",\"comment\":\"I like the different color captions showing that different character. Like blue captions from that person. Red captions from other person. But I dislike the color quality in the black highlight. I would like to see if the text color can be more bright. And again, it depends on people with color blind. I cannot assume how many people who do not see the red color. \"}"}, {"trial_type": "survey-html-form", "internal_node_id": "0.0-3.0", "rt": 128804.06999999832, "trial_index": 3, "time_elapsed": 494266, "responses": "{\"useful_question\":\"4\",\"enjoy_question\":\"3\",\"easy_to_follow_question\":\"2\",\"comment\":\"It's hard to track people who say in captions. Also, it's interesting to see smile emotions. If angry or sad, im sure that there will have more adjustable emotions. However, I realize how long I notice the emotion. Like a bit longer than reading English text. Probably, it's like something I did not get used to this. It requires me seeing a bit more for my contextual information as reader. \"}"}, {"trial_type": "survey-html-form", "internal_node_id": "0.0-4.0", "rt": 90522.72500000254, "trial_index": 4, "time_elapsed": 584801, "responses": "{\"useful_question\":\"5\",\"enjoy_question\":\"4\",\"easy_to_follow_question\":\"4\",\"comment\":\"I like the identifiable voices, but I disagree with the gender. I suggest the neutral pronoun/gender. Perhaps, adding \\\"Name\\\" voice or \\\"Name's\\\" voice instead of assuming that's male or female.  \"}"}, {"trial_type": "survey-html-form", "internal_node_id": "0.0-5.0", "rt": 79845.1950000017, "trial_index": 5, "time_elapsed": 664658, "responses": "{\"useful_question\":\"4\",\"enjoy_question\":\"5\",\"easy_to_follow_question\":\"4\",\"comment\":\"I see the name's voice. That's even better, but it's hard for me to track the captions because of four people talking too quickly or (fast for turns). Needs to give time for audience's reading captions. Again, it's everyone's decision. \"}"}, {"trial_type": "survey-html-form", "internal_node_id": "0.0-6.0", "rt": 79844.83499999624, "trial_index": 6, "time_elapsed": 744510, "responses": "{\"useful_question\":\"3\",\"enjoy_question\":\"2\",\"easy_to_follow_question\":\"3\",\"comment\":\"Red or blue captions look so-so, but yellow colored-text looks way better. Perhaps using that specific color. I was wondering about all other colored text, and brightness -text color. \"}"}, {"trial_type": "survey-html-form", "internal_node_id": "0.0-7.0", "rt": 117797.86999999487, "trial_index": 7, "time_elapsed": 862319, "responses": "{\"useful_question\":\"2\",\"enjoy_question\":\"4\",\"easy_to_follow_question\":\"2\",\"comment\":\"It's hard for me to track the captions. Like who say. Also some people talk in the back, i cannot see their faces making me losing the track what I wanted to know who says. Also, it's interesting to read \\\"emotion\\\" face in captions at the same time, I see their faces. It looks not match. Perhaps, the tone defines the semantic captions. \"}"}, {"trial_type": "survey-html-form", "internal_node_id": "0.0-8.0", "rt": 64509.63000000047, "trial_index": 8, "time_elapsed": 926837, "responses": "{\"useful_question\":\"4\",\"enjoy_question\":\"4\",\"easy_to_follow_question\":\"4\",\"comment\":\"Much better, but the neutral gender voices are recommended. \"}"}, {"trial_type": "survey-html-form", "internal_node_id": "0.0-9.0", "rt": 78935.9800000093, "trial_index": 9, "time_elapsed": 1005785, "responses": "{\"useful_question\":\"2\",\"enjoy_question\":\"2\",\"easy_to_follow_question\":\"3\",\"comment\":\"I do not know why i feel that i see different timing between speaker and captions. Also, the captions look awkward to me. \"}"}, {"trial_type": "survey-html-form", "internal_node_id": "0.0-10.0", "rt": 66993.9650000016, "trial_index": 10, "time_elapsed": 1072788, "responses": "{\"useful_question\":\"2\",\"enjoy_question\":\"4\",\"easy_to_follow_question\":\"4\",\"comment\":\"Same comments as what I mentioned about colored text. Yellow is better ones for reading. \"}"}, {"trial_type": "survey-html-form", "internal_node_id": "0.0-11.0", "rt": 85598.96500001196, "trial_index": 11, "time_elapsed": 1158397, "responses": "{\"useful_question\":\"4\",\"enjoy_question\":\"4\",\"easy_to_follow_question\":\"4\",\"comment\":\"Input the \\\"emotion\\\" faces in the captions sentence. I think this is better than all of the previous ones with emotion faces. \"}"}, {"trial_type": "survey-html-form", "internal_node_id": "0.0-12.0", "rt": 58851.320000001695, "trial_index": 12, "time_elapsed": 1217257, "responses": "{\"useful_question\":\"4\",\"enjoy_question\":\"4\",\"easy_to_follow_question\":\"4\",\"comment\":\"Same as usual with regular captions including the gender voices. \"}"}, {"trial_type": "survey-html-form", "internal_node_id": "0.0-13.0", "rt": 4172.625000006519, "trial_index": 13, "time_elapsed": 1221432, "responses": "{}"}]