[{"rt": 116146, "trial_type": "survey-text", "internal_node_id": "0.0-0.0", "time_elapsed": 116258, "trial_index": 0, "responses": "{\"ID\":\"SI_62\"}"}, {"rt": 103459.00000000003, "trial_type": "survey-html-form", "internal_node_id": "0.0-1.0", "time_elapsed": 219781, "trial_index": 1, "responses": "{\"useful_question\":\"5\",\"enjoy_question\":\"5\",\"easy_to_follow_question\":\"2\",\"comment\":\"It talked about his dreams and what he wanted to do (go to Alaska) but honestly the captions wasn't that clear with the fast speaking back and forth identification of whos talking but as a fast reader, I caught up fast. \"}"}, {"rt": 118721.99999999997, "trial_type": "survey-html-form", "internal_node_id": "0.0-2.0", "time_elapsed": 338540, "trial_index": 2, "responses": "{\"useful_question\":\"5\",\"enjoy_question\":\"5\",\"easy_to_follow_question\":\"5\",\"comment\":\"It talked about women directing and how she felt about that- the captions were colored and the blue was too dark. But yes very easy to follow\"}"}, {"rt": 91152, "trial_type": "survey-html-form", "internal_node_id": "0.0-3.0", "time_elapsed": 429745, "trial_index": 3, "responses": "{\"useful_question\":\"5\",\"enjoy_question\":\"5\",\"easy_to_follow_question\":\"3\",\"comment\":\"It talked about the old times and wearing fanny packs. I am lucky to be able to have captions since I was born so I am used in how to identify whos talking but if a general saw this, it wouldn't be that clear. Using emojis doesn't help at all \"}"}, {"rt": 80872, "trial_type": "survey-html-form", "internal_node_id": "0.0-4.0", "time_elapsed": 510672, "trial_index": 4, "responses": "{\"useful_question\":\"5\",\"enjoy_question\":\"5\",\"easy_to_follow_question\":\"5\",\"comment\":\"Very easy to follow but DEFINITELY dont like the Male/female thing. Doesn't fit in the whole image\"}"}, {"rt": 88692.00000000006, "trial_type": "survey-html-form", "internal_node_id": "0.0-5.0", "time_elapsed": 599409, "trial_index": 5, "responses": "{\"useful_question\":\"5\",\"enjoy_question\":\"5\",\"easy_to_follow_question\":\"2\",\"comment\":\"It talked about how much time children should ave to do homework and how much is too long for specific ages. It was hard to follow because there are indeed many participants so its better to use a different system to identify whos talking. This was not clear. \"}"}, {"rt": 67771, "trial_type": "survey-html-form", "internal_node_id": "0.0-6.0", "time_elapsed": 667252, "trial_index": 6, "responses": "{\"useful_question\":\"5\",\"enjoy_question\":\"5\",\"easy_to_follow_question\":\"5\",\"comment\":\"It talked about working families and how they choose to spend their holidays. Very easy to follow but not common to have color per person but that could work. \"}"}, {"rt": 83142, "trial_type": "survey-html-form", "internal_node_id": "0.0-7.0", "time_elapsed": 750440, "trial_index": 7, "responses": "{\"useful_question\":\"4\",\"enjoy_question\":\"4\",\"easy_to_follow_question\":\"1\",\"comment\":\"t talked about Stranger Things (actors that were in it) and the captions were TOUGH to follow. I didn't know who was talking. \"}"}, {"rt": 92301, "trial_type": "survey-html-form", "internal_node_id": "0.0-8.0", "time_elapsed": 842776, "trial_index": 8, "responses": "{\"useful_question\":\"5\",\"enjoy_question\":\"4\",\"easy_to_follow_question\":\"4\",\"comment\":\"It talked about sleeping with your phone and reasons why they do. It was easy to follow yes but the \\\"FEMALE\\\" took over the point of captioning. Less name is better-more details is better\"}"}, {"rt": 72256, "trial_type": "survey-html-form", "internal_node_id": "0.0-9.0", "time_elapsed": 915071, "trial_index": 9, "responses": "{\"useful_question\":\"5\",\"enjoy_question\":\"5\",\"easy_to_follow_question\":\"4\",\"comment\":\"It talked abut Mandy Moore and her return to music through an interview. I dont like symbols myself- very annoying when trying to read\"}"}, {"rt": 67333.99999999988, "trial_type": "survey-html-form", "internal_node_id": "0.0-10.0", "time_elapsed": 982443, "trial_index": 10, "responses": "{\"useful_question\":\"5\",\"enjoy_question\":\"5\",\"easy_to_follow_question\":\"5\",\"comment\":\"Talked about this very brilliant young girl who knows alot already. Very easy to follow!\"}"}, {"rt": 105310.99999999988, "trial_type": "survey-html-form", "internal_node_id": "0.0-11.0", "time_elapsed": 1087789, "trial_index": 11, "responses": "{\"useful_question\":\"5\",\"enjoy_question\":\"5\",\"easy_to_follow_question\":\"5\",\"comment\":\"It talked about Phelps and his dream and achieving it. However the emojis were very annoying--it doesn't really help identify whos talking because m focused on whats being said rather than which emoji it is to tell me whos talking,. \"}"}, {"rt": 82955, "trial_type": "survey-html-form", "internal_node_id": "0.0-12.0", "time_elapsed": 1170827, "trial_index": 12, "responses": "{\"useful_question\":\"5\",\"enjoy_question\":\"5\",\"easy_to_follow_question\":\"5\",\"comment\":\"It talked about two ladies learning they would be working together and how it came to be. Very easy to follow esp with Female speaker 1 and 2. Helps me know which one was talking but the wording is too long \\\"Female speaker 1\\\" \"}"}, {"rt": 5985, "trial_type": "survey-html-form", "internal_node_id": "0.0-13.0", "time_elapsed": 1176813, "trial_index": 13, "responses": "{}"}]