[{"time_elapsed": 324608, "responses": "{\"ID\":\"SI_65\"}", "internal_node_id": "0.0-0.0", "trial_index": 0, "rt": 323859, "trial_type": "survey-text"}, {"time_elapsed": 440811, "responses": "{\"useful_question\":\"4\",\"enjoy_question\":\"5\",\"easy_to_follow_question\":\"5\",\"comment\":\"Interview with rock star.  Chevons were helpful in indicating who was speaking\"}", "internal_node_id": "0.0-1.0", "trial_index": 1, "rt": 115936.00000000006, "trial_type": "survey-html-form"}, {"time_elapsed": 594635, "responses": "{\"useful_question\":\"4\",\"enjoy_question\":\"4\",\"easy_to_follow_question\":\"4\",\"comment\":\"interview with film director.  Using colors to differentiate who was speaking works nicely however the color blue was quite dark and hard to read.  Blue is generally more a male color and should have been assigned to the male speaker.  Red should have been assigned the female speaker\"}", "internal_node_id": "0.0-2.0", "trial_index": 2, "rt": 153735, "trial_type": "survey-html-form"}, {"time_elapsed": 680651, "responses": "{\"useful_question\":\"4\",\"enjoy_question\":\"4\",\"easy_to_follow_question\":\"3\",\"comment\":\"Discussion about fanny packs.  Emojis were a distraction and not very helpful.\"}", "internal_node_id": "0.0-3.0", "trial_index": 3, "rt": 85961.00000000012, "trial_type": "survey-html-form"}, {"time_elapsed": 792173, "responses": "{\"useful_question\":\"4\",\"enjoy_question\":\"4\",\"easy_to_follow_question\":\"4\",\"comment\":\"Discussion about some type of platform for day trading.  Male and female speaker indicators were helpful but took up too much of the captioning space\"}", "internal_node_id": "0.0-4.0", "trial_index": 4, "rt": 111447, "trial_type": "survey-html-form"}, {"time_elapsed": 923256, "responses": "{\"useful_question\":\"4\",\"enjoy_question\":\"4\",\"easy_to_follow_question\":\"4\",\"comment\":\"Amount of homework time for a 6 year old.  Names indicating who is speaking is nice but has potential for confusion if speaker names  weren't identified in first place\"}", "internal_node_id": "0.0-5.0", "trial_index": 5, "rt": 131006, "trial_type": "survey-html-form"}, {"time_elapsed": 1036626, "responses": "{\"useful_question\":\"4\",\"enjoy_question\":\"4\",\"easy_to_follow_question\":\"3\",\"comment\":\"Friendsgiving.  Assigned caption colors for each speaker is novel but can lend to confusion if there are multiple speakers 4 or more\"}", "internal_node_id": "0.0-6.0", "trial_index": 6, "rt": 113290, "trial_type": "survey-html-form"}, {"time_elapsed": 1121042, "responses": "{\"useful_question\":\"4\",\"enjoy_question\":\"3\",\"easy_to_follow_question\":\"3\",\"comment\":\"Stranger Things show.  Emojis were mostly irrelevant and unhelpful.\"}", "internal_node_id": "0.0-7.0", "trial_index": 7, "rt": 84361, "trial_type": "survey-html-form"}, {"time_elapsed": 1214947, "responses": "{\"useful_question\":\"4\",\"enjoy_question\":\"4\",\"easy_to_follow_question\":\"3\",\"comment\":\"Warm pillows.  Speaker designation is nice but could lend to confusion if there are multiple speakers.  4 or more\"}", "internal_node_id": "0.0-8.0", "trial_index": 8, "rt": 93836, "trial_type": "survey-html-form"}, {"time_elapsed": 1337488, "responses": "{\"useful_question\":\"4\",\"enjoy_question\":\"5\",\"easy_to_follow_question\":\"5\",\"comment\":\"Mandy's singing talents.  Loved the chevron along with name identifying who was speaking\"}", "internal_node_id": "0.0-9.0", "trial_index": 9, "rt": 122501, "trial_type": "survey-html-form"}, {"time_elapsed": 1429780, "responses": "{\"useful_question\":\"4\",\"enjoy_question\":\"4\",\"easy_to_follow_question\":\"4\",\"comment\":\"Young girl learning to read.  Colors identifying speakers were helpful especially when able to tie to visuals of them speaking\"}", "internal_node_id": "0.0-10.0", "trial_index": 10, "rt": 92230, "trial_type": "survey-html-form"}, {"time_elapsed": 1563360, "responses": "{\"useful_question\":\"4\",\"enjoy_question\":\"4\",\"easy_to_follow_question\":\"3\",\"comment\":\"Phelps and all his olympic medals.  Emojis in the captions became invisible to me and focused only on text content\"}", "internal_node_id": "0.0-11.0", "trial_index": 11, "rt": 133535, "trial_type": "survey-html-form"}, {"time_elapsed": 1676624, "responses": "{\"useful_question\":\"4\",\"enjoy_question\":\"4\",\"easy_to_follow_question\":\"4\",\"comment\":\"Discussion about making a phone call to a famous person. Gender use identifying speaker is helpful but not the best approach.\"}", "internal_node_id": "0.0-12.0", "trial_index": 12, "rt": 113226, "trial_type": "survey-html-form"}, {"time_elapsed": 1680268, "responses": "{}", "internal_node_id": "0.0-13.0", "trial_index": 13, "rt": 3643, "trial_type": "survey-html-form"}]