[{"trial_type": "survey-text", "trial_index": 0, "rt": 140636.73500006553, "internal_node_id": "0.0-0.0", "time_elapsed": 140686, "responses": "{\"ID\":\"SI_51\"}"}, {"trial_type": "survey-html-form", "trial_index": 1, "rt": 99200.19999996293, "internal_node_id": "0.0-1.0", "time_elapsed": 239890, "responses": "{\"useful_question\":\"4\",\"enjoy_question\":\"4\",\"easy_to_follow_question\":\"4\",\"comment\":\"I think good identity person \\\"interpreter\\\", wish add color word, not whole \"}"}, {"trial_type": "survey-html-form", "trial_index": 2, "rt": 266504.9049999798, "internal_node_id": "0.0-2.0", "time_elapsed": 506397, "responses": "{\"useful_question\":\"3\",\"enjoy_question\":\"2\",\"easy_to_follow_question\":\"3\",\"comment\":\"hard to see color blue too dark, when caption disappear she kept talk speak, late caption appear later\"}"}, {"trial_type": "survey-html-form", "trial_index": 3, "rt": 398497.90499999654, "internal_node_id": "0.0-3.0", "time_elapsed": 904904, "responses": "{\"useful_question\":\"3\",\"enjoy_question\":\"4\",\"easy_to_follow_question\":\"3\",\"comment\":\"not like idea with emoji, confuse which person talk about. \"}"}, {"trial_type": "survey-html-form", "trial_index": 4, "rt": 86068.57499992475, "internal_node_id": "0.0-4.0", "time_elapsed": 990977, "responses": "{\"useful_question\":\"4\",\"enjoy_question\":\"4\",\"easy_to_follow_question\":\"4\",\"comment\":\"like with \\\"male voice\\\" and female voice too. wish add color for person only. \"}"}, {"trial_type": "survey-html-form", "trial_index": 5, "rt": 120063.7300000526, "internal_node_id": "0.0-5.0", "time_elapsed": 1111047, "responses": "{\"useful_question\":\"2\",\"enjoy_question\":\"2\",\"easy_to_follow_question\":\"3\",\"comment\":\"because not clearly full sentence on caption. \"}"}, {"trial_type": "survey-html-form", "trial_index": 6, "rt": 122305.09000003804, "internal_node_id": "0.0-6.0", "time_elapsed": 1233357, "responses": "{\"useful_question\":\"3\",\"enjoy_question\":\"2\",\"easy_to_follow_question\":\"3\",\"comment\":\"too small caption, which person speak identify color, not need whole sentence color.\"}"}, {"trial_type": "survey-html-form", "trial_index": 7, "rt": 149266.14000007976, "internal_node_id": "0.0-7.0", "time_elapsed": 1382629, "responses": "{\"useful_question\":\"4\",\"enjoy_question\":\"3\",\"easy_to_follow_question\":\"4\",\"comment\":\"good notice which person with emoji, wish add more than emoji. \"}"}, {"trial_type": "survey-html-form", "trial_index": 8, "rt": 90874.25999995321, "internal_node_id": "0.0-8.0", "time_elapsed": 1473507, "responses": "{\"useful_question\":\"4\",\"enjoy_question\":\"5\",\"easy_to_follow_question\":\"4\",\"comment\":\"great caption exact who speak with number 1, 2. wish add color light, not dark.\"}"}, {"trial_type": "survey-html-form", "trial_index": 9, "rt": 140845.06000007968, "internal_node_id": "0.0-9.0", "time_elapsed": 1614357, "responses": "{\"useful_question\":\"3\",\"enjoy_question\":\"3\",\"easy_to_follow_question\":\"3\",\"comment\":\"not really enjoy with caption, too together sentence, wish make second line than together\"}"}, {"trial_type": "survey-html-form", "trial_index": 10, "rt": 90238.6000000406, "internal_node_id": "0.0-10.0", "time_elapsed": 1704600, "responses": "{\"useful_question\":\"5\",\"enjoy_question\":\"5\",\"easy_to_follow_question\":\"5\",\"comment\":\"more understand who speak with different color, wish only person talk, not whole sentence and no dark color, light better.\"}"}, {"trial_type": "survey-html-form", "trial_index": 11, "rt": 178349.5699999621, "internal_node_id": "0.0-11.0", "time_elapsed": 1882956, "responses": "{\"useful_question\":\"3\",\"enjoy_question\":\"2\",\"easy_to_follow_question\":\"3\",\"comment\":\"sometime confuse with emoji, not sense match which speak laugh or smile or mad, not exact some person.\"}"}, {"trial_type": "survey-html-form", "trial_index": 12, "rt": 117469.80000007898, "internal_node_id": "0.0-12.0", "time_elapsed": 2000430, "responses": "{\"useful_question\":\"4\",\"enjoy_question\":\"4\",\"easy_to_follow_question\":\"4\",\"comment\":\"good caption with who speak with { }, good add laugh caption, only one thing need color add person\"}"}, {"trial_type": "survey-html-form", "trial_index": 13, "rt": 4663.369999965653, "internal_node_id": "0.0-13.0", "time_elapsed": 2005094, "responses": "{}"}]