[{"responses": "{\"ID\":\"SI_78\"}", "internal_node_id": "0.0-0.0", "time_elapsed": 102161, "trial_type": "survey-text", "trial_index": 0, "rt": 102154.2}, {"responses": "{\"useful_question\":\"5\",\"enjoy_question\":\"5\",\"easy_to_follow_question\":\"5\",\"comment\":\"Interviewer asked him several questions, the captions were clear\"}", "internal_node_id": "0.0-1.0", "time_elapsed": 276355, "trial_type": "survey-html-form", "trial_index": 1, "rt": 174048.19999999998}, {"responses": "{\"useful_question\":\"2\",\"enjoy_question\":\"2\",\"easy_to_follow_question\":\"3\",\"comment\":\"woman was interviewing. Color captions were are not good for visual\"}", "internal_node_id": "0.0-2.0", "time_elapsed": 487958, "trial_type": "survey-html-form", "trial_index": 2, "rt": 211470.89999999997}, {"responses": "{\"useful_question\":\"4\",\"enjoy_question\":\"4\",\"easy_to_follow_question\":\"4\",\"comment\":\"They were talking about fanny bag. The captions were thick\"}", "internal_node_id": "0.0-3.0", "time_elapsed": 573872, "trial_type": "survey-html-form", "trial_index": 3, "rt": 85790.80000000005}, {"responses": "{\"useful_question\":\"3\",\"enjoy_question\":\"3\",\"easy_to_follow_question\":\"3\",\"comment\":\"They were discussing about business market. The captions were complication\"}", "internal_node_id": "0.0-4.0", "time_elapsed": 699169, "trial_type": "survey-html-form", "trial_index": 4, "rt": 125154.69999999995}, {"responses": "{\"useful_question\":\"3\",\"enjoy_question\":\"3\",\"easy_to_follow_question\":\"3\",\"comment\":\"talkng about homework and 1st grade. the captions were missed \"}", "internal_node_id": "0.0-5.0", "time_elapsed": 775463, "trial_type": "survey-html-form", "trial_index": 5, "rt": 76188.59999999998}, {"responses": "{\"useful_question\":\"1\",\"enjoy_question\":\"1\",\"easy_to_follow_question\":\"1\",\"comment\":\"about working family. the captons were awful hard to see change colors\"}", "internal_node_id": "0.0-6.0", "time_elapsed": 878348, "trial_type": "survey-html-form", "trial_index": 6, "rt": 102775.80000000005}, {"responses": "{\"useful_question\":\"1\",\"enjoy_question\":\"1\",\"easy_to_follow_question\":\"1\",\"comment\":\"meet each others.  no need emoji with captions\"}", "internal_node_id": "0.0-7.0", "time_elapsed": 967664, "trial_type": "survey-html-form", "trial_index": 7, "rt": 89211.80000000005}, {"responses": "{\"useful_question\":\"3\",\"enjoy_question\":\"3\",\"easy_to_follow_question\":\"3\",\"comment\":\"sleeping with cell phone. Captions are ok\"}", "internal_node_id": "0.0-8.0", "time_elapsed": 1032450, "trial_type": "survey-html-form", "trial_index": 8, "rt": 64645}, {"responses": "{\"useful_question\":\"4\",\"enjoy_question\":\"4\",\"easy_to_follow_question\":\"4\",\"comment\":\"Her life and creative. captions should not arrow \"}", "internal_node_id": "0.0-9.0", "time_elapsed": 1113927, "trial_type": "survey-html-form", "trial_index": 9, "rt": 81368.29999999993}, {"responses": "{\"useful_question\":\"2\",\"enjoy_question\":\"3\",\"easy_to_follow_question\":\"3\",\"comment\":\"little girl learns flash card. Don't like color captions\"}", "internal_node_id": "0.0-10.0", "time_elapsed": 1228719, "trial_type": "survey-html-form", "trial_index": 10, "rt": 114651.09999999986}, {"responses": "{\"useful_question\":\"2\",\"enjoy_question\":\"2\",\"easy_to_follow_question\":\"2\",\"comment\":\"He won manhy medals.  No need emoji on the captions\"}", "internal_node_id": "0.0-11.0", "time_elapsed": 1315031, "trial_type": "survey-html-form", "trial_index": 11, "rt": 86203.80000000005}, {"responses": "{\"useful_question\":\"4\",\"enjoy_question\":\"4\",\"easy_to_follow_question\":\"4\",\"comment\":\"Just nervous about the speaker. Captions are fine\"}", "internal_node_id": "0.0-12.0", "time_elapsed": 1388209, "trial_type": "survey-html-form", "trial_index": 12, "rt": 73038}, {"responses": "{}", "internal_node_id": "0.0-13.0", "time_elapsed": 1391506, "trial_type": "survey-html-form", "trial_index": 13, "rt": 3294.5999999998603}]