[{"rt": 212028, "trial_type": "survey-text", "responses": "{\"ID\":\"SI_69\"}", "time_elapsed": 212109, "trial_index": 0, "internal_node_id": "0.0-0.0"}, {"rt": 121550, "trial_type": "survey-html-form", "responses": "{\"useful_question\":\"2\",\"enjoy_question\":\"2\",\"easy_to_follow_question\":\"2\",\"comment\":\"They interviewed Nick Jonas about his experiences. It was difficult to read the captions because it was one long line not separate lines. It all blurred into one. \"}", "time_elapsed": 333729, "trial_index": 1, "internal_node_id": "0.0-1.0"}, {"rt": 92411, "trial_type": "survey-html-form", "responses": "{\"useful_question\":\"4\",\"enjoy_question\":\"4\",\"easy_to_follow_question\":\"4\",\"comment\":\"They interviewed Greta about her nomination for best director. I didn't have a problem following the captions but I know the colors especially the blue is not Deaf/Blind friendly.\"}", "time_elapsed": 426194, "trial_index": 2, "internal_node_id": "0.0-2.0"}, {"rt": 87590, "trial_type": "survey-html-form", "responses": "{\"useful_question\":\"2\",\"enjoy_question\":\"2\",\"easy_to_follow_question\":\"2\",\"comment\":\"Ellen discussed the Rock's fanny packs. The smiley face at the beginning was very distracting. It was also difficult to follow who was speaking.\"}", "time_elapsed": 513849, "trial_index": 3, "internal_node_id": "0.0-3.0"}, {"rt": 75992.99999999994, "trial_type": "survey-html-form", "responses": "{\"useful_question\":\"4\",\"enjoy_question\":\"4\",\"easy_to_follow_question\":\"4\",\"comment\":\"I honestly don't know what happened, something related to money. I thought the captions were the easiest to read thus far.\"}", "time_elapsed": 589884, "trial_index": 4, "internal_node_id": "0.0-4.0"}, {"rt": 73161.99999999988, "trial_type": "survey-html-form", "responses": "{\"useful_question\":\"5\",\"enjoy_question\":\"5\",\"easy_to_follow_question\":\"5\",\"comment\":\"The video discussed the amount of homework appropriate for first graders. I though the captions were very clear and easy to read.\"}", "time_elapsed": 663100, "trial_index": 5, "internal_node_id": "0.0-5.0"}, {"rt": 85011.00000000012, "trial_type": "survey-html-form", "responses": "{\"useful_question\":\"4\",\"enjoy_question\":\"4\",\"easy_to_follow_question\":\"4\",\"comment\":\"The video discussed that Thanksgiving can occur any day of the week not just Thursday. I thought the captions were good because I knew a different person was speaking, but the colors are a little distracting. \"}", "time_elapsed": 748160, "trial_index": 6, "internal_node_id": "0.0-6.0"}, {"rt": 102454, "trial_type": "survey-html-form", "responses": "{\"useful_question\":\"2\",\"enjoy_question\":\"2\",\"easy_to_follow_question\":\"2\",\"comment\":\"The video involved actors from Stranger Things going into the upside down. I really don't like the smiley face at the beginning. It was also difficult to follow who was speaking.\"}", "time_elapsed": 850652, "trial_index": 7, "internal_node_id": "0.0-7.0"}, {"rt": 76544, "trial_type": "survey-html-form", "responses": "{\"useful_question\":\"4\",\"enjoy_question\":\"4\",\"easy_to_follow_question\":\"4\",\"comment\":\"The video discussed sleeping with your cell phone under or near your pillow. I thought the captions were easy to follow. I liked the simple black and white.\"}", "time_elapsed": 927256, "trial_index": 8, "internal_node_id": "0.0-8.0"}, {"rt": 78344, "trial_type": "survey-html-form", "responses": "{\"useful_question\":\"5\",\"enjoy_question\":\"5\",\"easy_to_follow_question\":\"5\",\"comment\":\"The video discussed Mandy Moore as a young actress. I liked the captions, that is the way I'm used to seeing them appear.\"}", "time_elapsed": 1005617, "trial_index": 9, "internal_node_id": "0.0-9.0"}, {"rt": 79301, "trial_type": "survey-html-form", "responses": "{\"useful_question\":\"3\",\"enjoy_question\":\"3\",\"easy_to_follow_question\":\"3\",\"comment\":\"The video discussed a young toddler who knew her state capitols. I like captions that name who is speaking, not just a different color.\"}", "time_elapsed": 1084962, "trial_index": 10, "internal_node_id": "0.0-10.0"}, {"rt": 82646, "trial_type": "survey-html-form", "responses": "{\"useful_question\":\"4\",\"enjoy_question\":\"4\",\"easy_to_follow_question\":\"4\",\"comment\":\"The video discussed swimmer Michael Phelps career. I like how big the captions are but hate the smiley face.\"}", "time_elapsed": 1167656, "trial_index": 11, "internal_node_id": "0.0-11.0"}, {"rt": 71085.00000000023, "trial_type": "survey-html-form", "responses": "{\"useful_question\":\"4\",\"enjoy_question\":\"4\",\"easy_to_follow_question\":\"4\",\"comment\":\"The video discussed the introduction of two women over Twitter. I liked the captions and thought they were clear.\"}", "time_elapsed": 1238795, "trial_index": 12, "internal_node_id": "0.0-12.0"}, {"rt": 4397, "trial_type": "survey-html-form", "responses": "{}", "time_elapsed": 1243194, "trial_index": 13, "internal_node_id": "0.0-13.0"}]