[{"trial_type": "survey-text", "internal_node_id": "0.0-0.0", "responses": "{\"ID\":\"Si_80\"}", "rt": 129002.18999991193, "time_elapsed": 129089, "trial_index": 0}, {"trial_type": "survey-html-form", "internal_node_id": "0.0-1.0", "responses": "{\"useful_question\":\"5\",\"enjoy_question\":\"5\",\"easy_to_follow_question\":\"5\",\"comment\":\"The captions were very helpful, however I feel like it didn't match to what the person was speaking at the time, like their was a lag.\"}", "rt": 157873.58999997377, "time_elapsed": 286976, "trial_index": 1}, {"trial_type": "survey-html-form", "internal_node_id": "0.0-2.0", "responses": "{\"useful_question\":\"5\",\"enjoy_question\":\"5\",\"easy_to_follow_question\":\"5\",\"comment\":\"A young lady was being nominated and the interviewer wanted to know how she felt about the nomination. I really like the color coding to match who was speaking at the time. \"}", "rt": 145243.2849998586, "time_elapsed": 432234, "trial_index": 2}, {"trial_type": "survey-html-form", "internal_node_id": "0.0-3.0", "responses": "{\"useful_question\":\"5\",\"enjoy_question\":\"5\",\"easy_to_follow_question\":\"5\",\"comment\":\"The video talked about The Rock's poptart and fanny pack obsessions. This was the first time viewing captions with emojis expressing the attitude of how they were saying. Personally I felt it was a bit distracting.\"}", "rt": 118029.26500001922, "time_elapsed": 550276, "trial_index": 3}, {"trial_type": "survey-html-form", "internal_node_id": "0.0-4.0", "responses": "{\"useful_question\":\"5\",\"enjoy_question\":\"5\",\"easy_to_follow_question\":\"5\",\"comment\":\"The video talked about a man's business ventures and a lady was asking him about it. I like how the captions distinguishes the voices, so i don't always have to look at the screen to figure out who's talking.\"}", "rt": 151376.91999971867, "time_elapsed": 701666, "trial_index": 4}, {"trial_type": "survey-html-form", "internal_node_id": "0.0-5.0", "responses": "{\"useful_question\":\"5\",\"enjoy_question\":\"5\",\"easy_to_follow_question\":\"5\",\"comment\":\"The video was a group of people talking about first graders and homework. I think I would like the captions better if they separate the sentences of who's talking. I also find the >>>distracting. \"}", "rt": 116550.73999986053, "time_elapsed": 818225, "trial_index": 5}, {"trial_type": "survey-html-form", "internal_node_id": "0.0-6.0", "responses": "{\"useful_question\":\"4\",\"enjoy_question\":\"4\",\"easy_to_follow_question\":\"4\",\"comment\":\"The video was a group of people sharing their opinion about Thanksgiving. The captions were too small, however I think the color coding would only work if conversation was between two people. I would have liked [NAME]... better in this situation. \"}", "rt": 145763.3100003004, "time_elapsed": 963996, "trial_index": 6}, {"trial_type": "survey-html-form", "internal_node_id": "0.0-7.0", "responses": "{\"useful_question\":\"3\",\"enjoy_question\":\"3\",\"easy_to_follow_question\":\"2\",\"comment\":\"The video was about Stranger Things? I liked the size of the captions, the emojis were distracting, and I would have like a [NAME]... especially when they all turned their backs and I had no idea who was speaking. \"}", "rt": 119926.93000007421, "time_elapsed": 1083937, "trial_index": 7}, {"trial_type": "survey-html-form", "internal_node_id": "0.0-8.0", "responses": "{\"useful_question\":\"5\",\"enjoy_question\":\"5\",\"easy_to_follow_question\":\"5\",\"comment\":\"The video was a about a group talking about waking up in the mornings. The captions were perfect in this video. Correct size, speed, and I was able to distinguish who was speaking in the group. \"}", "rt": 89240.77500030398, "time_elapsed": 1173196, "trial_index": 8}, {"trial_type": "survey-html-form", "internal_node_id": "0.0-9.0", "responses": "{\"useful_question\":\"4\",\"enjoy_question\":\"5\",\"easy_to_follow_question\":\"5\",\"comment\":\"The video was about a girl growing up as a singer. The captions were perfect size, the >>> was distracting, and the speed of the caption didn't match up to the voice in some parts. \"}", "rt": 104709.76499980316, "time_elapsed": 1277918, "trial_index": 9}, {"trial_type": "survey-html-form", "internal_node_id": "0.0-10.0", "responses": "{\"useful_question\":\"5\",\"enjoy_question\":\"5\",\"easy_to_follow_question\":\"5\",\"comment\":\"The video was about a little girl and her knowledge. I really like that they added [APPLAUSE] gives reader more audio information, and the color coding was appropriate for this scenario.\"}", "rt": 137311.50499964133, "time_elapsed": 1415242, "trial_index": 10}, {"trial_type": "survey-html-form", "internal_node_id": "0.0-11.0", "responses": "{\"useful_question\":\"5\",\"enjoy_question\":\"4\",\"easy_to_follow_question\":\"5\",\"comment\":\"The video was about an Olympian and his accomplishments. The emojis were distracting, and I wish the speakers were distinguished somehow. I did like the size of the captions. \"}", "rt": 104798.04999986663, "time_elapsed": 1520048, "trial_index": 11}, {"trial_type": "survey-html-form", "internal_node_id": "0.0-12.0", "responses": "{\"useful_question\":\"5\",\"enjoy_question\":\"5\",\"easy_to_follow_question\":\"5\",\"comment\":\"The video was about a host talking about how she was nervous to invite/call a guest to participate on her show. I like that the captions added one of the speakers [LAUGHTER], the size was okay, and I really like that they distinguished the speakers. \"}", "rt": 115786.03499988094, "time_elapsed": 1635845, "trial_index": 12}, {"trial_type": "survey-html-form", "internal_node_id": "0.0-13.0", "responses": "{}", "rt": 4485.0349999032915, "time_elapsed": 1640332, "trial_index": 13}]