[{"responses": "{\"ID\":\"SI_68\"}", "rt": 52613.51499997545, "time_elapsed": 52677, "trial_type": "survey-text", "trial_index": 0, "internal_node_id": "0.0-0.0"}, {"responses": "{\"useful_question\":\"4\",\"enjoy_question\":\"4\",\"easy_to_follow_question\":\"2\",\"comment\":\"This was about an interview between Nick and a reporter. The captions were very lagged and hard to follow since it was all on one line.\"}", "rt": 106854.49499997776, "time_elapsed": 159573, "trial_type": "survey-html-form", "trial_index": 1, "internal_node_id": "0.0-1.0"}, {"responses": "{\"useful_question\":\"5\",\"enjoy_question\":\"5\",\"easy_to_follow_question\":\"4\",\"comment\":\"The video was an interview with Greta about being the first few women directors getting an award. I liked the different colors- they made it easy to follow but it was also hard to read because the contrast was low. \"}", "rt": 112807.83500010148, "time_elapsed": 272391, "trial_type": "survey-html-form", "trial_index": 2, "internal_node_id": "0.0-2.0"}, {"responses": "{\"useful_question\":\"4\",\"enjoy_question\":\"4\",\"easy_to_follow_question\":\"3\",\"comment\":\"An interview between Ellen and \\\"The Rock\\\" about fanny packs and him carrying Poptarts and handcuffs in his. The captions were timely but it was also hard to tell who was talking. \"}", "rt": 95493.89500007965, "time_elapsed": 367895, "trial_type": "survey-html-form", "trial_index": 3, "internal_node_id": "0.0-3.0"}, {"responses": "{\"useful_question\":\"5\",\"enjoy_question\":\"5\",\"easy_to_follow_question\":\"5\",\"comment\":\"An interview between a woman and man about marketing strategies for day trading. The captions were easy to follow but I find it strange that they used \\\"female voice\\\" and \\\"male voice.\\\"\"}", "rt": 95270.20000002813, "time_elapsed": 463181, "trial_type": "survey-html-form", "trial_index": 4, "internal_node_id": "0.0-4.0"}, {"responses": "{\"useful_question\":\"5\",\"enjoy_question\":\"5\",\"easy_to_follow_question\":\"5\",\"comment\":\"A group discussion about whether homework was too much for kids. I liked the use of names in the captions, but I wished they would start a new line below for each person so it is easier to follow. \"}", "rt": 89115.34000001848, "time_elapsed": 552303, "trial_type": "survey-html-form", "trial_index": 5, "internal_node_id": "0.0-5.0"}, {"responses": "{\"useful_question\":\"5\",\"enjoy_question\":\"4\",\"easy_to_follow_question\":\"3\",\"comment\":\"A group discussion about when Thanksgiving is celebrated- it's not always Thursday. I liked the different colors but the blue and pink were hard to read because of the low contrast.\"}", "rt": 101725.58000008576, "time_elapsed": 654035, "trial_type": "survey-html-form", "trial_index": 6, "internal_node_id": "0.0-6.0"}, {"responses": "{\"useful_question\":\"5\",\"enjoy_question\":\"5\",\"easy_to_follow_question\":\"3\",\"comment\":\"An interview with two actors from Stranger Things and the interview will be held upside down. The emojis were a little hard to catch but I could follow all of the speakers clearly. \"}", "rt": 105017.1599999303, "time_elapsed": 759064, "trial_type": "survey-html-form", "trial_index": 7, "internal_node_id": "0.0-7.0"}, {"responses": "{\"useful_question\":\"4\",\"enjoy_question\":\"3\",\"easy_to_follow_question\":\"3\",\"comment\":\"A group discussion about why Female Speaker 1 sleeps with her phone as an alarm clock. I did not connect the faces to the captions so while I followed along the discussion, I was still not 100% clear on who was who.\"}", "rt": 107493.66499995813, "time_elapsed": 866569, "trial_type": "survey-html-form", "trial_index": 8, "internal_node_id": "0.0-8.0"}, {"responses": "{\"useful_question\":\"4\",\"enjoy_question\":\"3\",\"easy_to_follow_question\":\"2\",\"comment\":\"An interview about Mandy Moore going back to singing after not singing in a while. I liked the use of names, but it was still not spaced out so it feels like one long monologue than three women discussing. Also there were no faces to connect the names to, so I'm not sure which one is who except for Mandy. \"}", "rt": 164541.3750000298, "time_elapsed": 1031123, "trial_type": "survey-html-form", "trial_index": 9, "internal_node_id": "0.0-9.0"}, {"responses": "{\"useful_question\":\"5\",\"enjoy_question\":\"4\",\"easy_to_follow_question\":\"4\",\"comment\":\"An interview between Ellen and a mom and her daughter who is sounding out words from flashcards. I liked the color shifting of the captions, which makes it easy for me to connect the person speaking them but again, the blue and pink is hard on my eyes. \"}", "rt": 104270.92000003904, "time_elapsed": 1135411, "trial_type": "survey-html-form", "trial_index": 10, "internal_node_id": "0.0-10.0"}, {"responses": "{\"useful_question\":\"4\",\"enjoy_question\":\"4\",\"easy_to_follow_question\":\"3\",\"comment\":\"An interview with an Olympian champion about how it all started with a dream. I think using smiling faces are harder for me to catch who is who because the differences are very subtle and I sometimes don't have time to catch them alone. \"}", "rt": 137372.53499997314, "time_elapsed": 1272828, "trial_type": "survey-html-form", "trial_index": 11, "internal_node_id": "0.0-11.0"}, {"responses": "{\"useful_question\":\"4\",\"enjoy_question\":\"4\",\"easy_to_follow_question\":\"3\",\"comment\":\"An interview about how two women met and started working together after cancelling the first call. I wasn't sure what the topic was which made it slightly harder to follow since I cannot see all three's actors' mouths and did not connect which speaker was which.\"}", "rt": 162753.2399999909, "time_elapsed": 1435596, "trial_type": "survey-html-form", "trial_index": 12, "internal_node_id": "0.0-12.0"}, {"responses": "{}", "rt": 4792.379999998957, "time_elapsed": 1440389, "trial_type": "survey-html-form", "trial_index": 13, "internal_node_id": "0.0-13.0"}]