[{"responses": "{\"ID\":\"SI_76\"}", "trial_type": "survey-text", "time_elapsed": 57579, "trial_index": 0, "internal_node_id": "0.0-0.0", "rt": 57513.66999998572}, {"responses": "{\"useful_question\":\"2\",\"enjoy_question\":\"4\",\"easy_to_follow_question\":\"3\",\"comment\":\"TWO COLORS MAKE MORE DISTRACTING AND SAME WATCH WHO IS SPEAKING. THE VIDEO IS ABOUT AVENGER MOVIE- ACTION MOVIE.THE DIALOG IS FUNNY. \"}", "trial_type": "survey-html-form", "time_elapsed": 277357, "trial_index": 1, "internal_node_id": "0.0-1.0", "rt": 219763.5949999967}, {"responses": "{\"useful_question\":\"4\",\"enjoy_question\":\"4\",\"easy_to_follow_question\":\"4\",\"comment\":\"I JUST IGNORE THE EMOJI. SHOWING EMOJI IS ANNOYING BEC IT'S DIALOG/ INTERVIEW BETWEEN THE HOST AND THE GUEST SO NO NEED EMOJI. EMOJI USE FOR CHATTING, NOT FOR PUBIC ON NEWS. \"}", "trial_type": "survey-html-form", "time_elapsed": 458341, "trial_index": 2, "internal_node_id": "0.0-2.0", "rt": 180970.66500000074}, {"responses": "{\"useful_question\":\"4\",\"enjoy_question\":\"4\",\"easy_to_follow_question\":\"4\",\"comment\":\"THE TOPIC IS ABOUT MANAGER. OPINION- THE IS OPEN COMMUNICATION BETWEEN THE HOST AND THE GUEST. BUT THE BRACKET FOR PFFF- I DONT KNOW WHAT IS TALING ABOUT. \"}", "trial_type": "survey-html-form", "time_elapsed": 643651, "trial_index": 3, "internal_node_id": "0.0-3.0", "rt": 185298.45499999647}, {"responses": "{\"useful_question\":\"4\",\"enjoy_question\":\"4\",\"easy_to_follow_question\":\"3\",\"comment\":\"TOPIC-INDIAN FOOD. OPINION- THERE ARE A FEW MISTAKES IN SPELLING AND THE CAPTIONS ARE A BIT FAST. THE TIME IS SHOWING NEXT TO CAPTION IS LITTLE DISTRACTED. \"}", "trial_type": "survey-html-form", "time_elapsed": 775270, "trial_index": 4, "internal_node_id": "0.0-4.0", "rt": 131592.77499999735}, {"responses": "{\"useful_question\":\"5\",\"enjoy_question\":\"4\",\"easy_to_follow_question\":\"5\",\"comment\":\"TOPIC- INTERVIEW ABOUT THOR MOVIE. OPINION- THE CAPTIONS ARE EASY TO FOLLOW THAT WHO IS SPEAKING AS CAPTIONS SHOW DIFFERENT COLORS. \"}", "trial_type": "survey-html-form", "time_elapsed": 876706, "trial_index": 5, "internal_node_id": "0.0-5.0", "rt": 101417.20000001078}, {"responses": "{\"useful_question\":\"4\",\"enjoy_question\":\"4\",\"easy_to_follow_question\":\"4\",\"comment\":\"TOPIC- ELLEN SHOW. OPINION- NO NEED TO ADD EMOJI SIGN ON CAPTIONS. I JUST IGNORE IT. THE CAPTION IS NOT FAST BUT LITTLE PART MISS READING WHEN I SEE THE PICTURE BEHIND THE HOST. \"}", "trial_type": "survey-html-form", "time_elapsed": 1010532, "trial_index": 6, "internal_node_id": "0.0-6.0", "rt": 133802.9200000019}, {"responses": "{\"useful_question\":\"3\",\"enjoy_question\":\"4\",\"easy_to_follow_question\":\"4\",\"comment\":\"TOPIC- UNSURE- MAY BE STANDARD FOR WOMAN AND MAN AT WORKPLACE? OPINION- I DONT KNOW WHO IS THE 1ST, 2ND AND AND 3RD SPEAKER. THE CAPION IS A BIT FASTER AND MISS SOME WORDS WHEN THE VIDEO/FRAME TO OTHER SPEAKER.  \"}", "trial_type": "survey-html-form", "time_elapsed": 1209289, "trial_index": 7, "internal_node_id": "0.0-7.0", "rt": 198734.31499999424}, {"responses": "{\"useful_question\":\"4\",\"enjoy_question\":\"3\",\"easy_to_follow_question\":\"3\",\"comment\":\"TOPIC- MUSIC. OPINION-  BOTH SIDES OF ICONS  BETWEEN CAPTIONS ARE MOVING THAT IS ANNOYING. CAPTIONS IN BLACK BOX IS EASY TO FOLLOW AND READ. \"}", "trial_type": "survey-html-form", "time_elapsed": 1318429, "trial_index": 8, "internal_node_id": "0.0-8.0", "rt": 109125.37500000326}, {"responses": "{\"useful_question\":\"3\",\"enjoy_question\":\"4\",\"easy_to_follow_question\":\"3\",\"comment\":\"TOPIC- BIKINI. OPINION- MANY COLORS ARE DISTRACTING BUT EASY TO IDENTIFY WITH CAPTION COLORS WHAT WHO IS SPEAKING. \"}", "trial_type": "survey-html-form", "time_elapsed": 1421385, "trial_index": 9, "internal_node_id": "0.0-9.0", "rt": 102945.91499998933}, {"responses": "{\"useful_question\":\"3\",\"enjoy_question\":\"3\",\"easy_to_follow_question\":\"3\",\"comment\":\"TOPIC- MOVIE EXPERIENCES FROM THE CHILD ACTORS. OPINION- THE IMOJIS ARE BOTHERING. IN CAPTIONS -- SIGNS, I HAVE NO IDEA WHAT IS IT CONNECTED. ALSO, LITTLE HARD THAT WHO IS SPEAKING WHICH SENTENCES- HOST OR WHICH GUESTS.  \"}", "trial_type": "survey-html-form", "time_elapsed": 1601382, "trial_index": 10, "internal_node_id": "0.0-10.0", "rt": 179975.38500001235}, {"responses": "{\"useful_question\":\"4\",\"enjoy_question\":\"4\",\"easy_to_follow_question\":\"4\",\"comment\":\"TOPIC- DRIVING WHILE TEXTING. OPINION EASY TO IDENTIFY BY MALE/FEMALE THAT WHICH HOST/GUEST IS SPEAKING. THE CAPTION IS SMALL TO READ. \"}", "trial_type": "survey-html-form", "time_elapsed": 1720735, "trial_index": 11, "internal_node_id": "0.0-11.0", "rt": 119343.17500000191}, {"responses": "{\"useful_question\":\"3\",\"enjoy_question\":\"3\",\"easy_to_follow_question\":\"2\",\"comment\":\"TOPIC- HOMEWORK DIALOG. OPINION- THE CAPTIONS ARE BIG AND EASY TO READ. BUT DON'T KNOW WHICH DIALOG WHO IS SPEAKING, UNLESS I KNOW THE NEME OF THE HOST/GUESTS. \"}", "trial_type": "survey-html-form", "time_elapsed": 1834117, "trial_index": 12, "internal_node_id": "0.0-12.0", "rt": 113366.92499999492}, {"responses": "{}", "trial_type": "survey-html-form", "time_elapsed": 1838184, "trial_index": 13, "internal_node_id": "0.0-13.0", "rt": 4065.089999989141}]