[{"time_elapsed": 111598, "trial_index": 0, "rt": 111191, "internal_node_id": "0.0-0.0", "trial_type": "survey-text", "responses": "{\"ID\":\"SI_66\"}"}, {"time_elapsed": 215269, "trial_index": 1, "rt": 103589.99999999999, "internal_node_id": "0.0-1.0", "trial_type": "survey-html-form", "responses": "{\"useful_question\":\"2\",\"enjoy_question\":\"2\",\"easy_to_follow_question\":\"2\",\"comment\":\"A person was talking about Downey. The captions were very confusing to follow.\"}"}, {"time_elapsed": 293178, "trial_index": 2, "rt": 77868, "internal_node_id": "0.0-2.0", "trial_type": "survey-html-form", "responses": "{\"useful_question\":\"2\",\"enjoy_question\":\"2\",\"easy_to_follow_question\":\"2\",\"comment\":\"The inventor of Tesla was being interviewed. The captions were annoying with the emojis- they took away my attention from the true message.\"}"}, {"time_elapsed": 374599, "trial_index": 3, "rt": 81366, "internal_node_id": "0.0-3.0", "trial_type": "survey-html-form", "responses": "{\"useful_question\":\"2\",\"enjoy_question\":\"2\",\"easy_to_follow_question\":\"2\",\"comment\":\"The speakers were talking about receiving feedback from managers. The captions were not clear - at times, it stated who was speaking and then it became inconsistent.\"}"}, {"time_elapsed": 484208, "trial_index": 4, "rt": 109565, "internal_node_id": "0.0-4.0", "trial_type": "survey-html-form", "responses": "{\"useful_question\":\"4\",\"enjoy_question\":\"4\",\"easy_to_follow_question\":\"2\",\"comment\":\"Nick was being interviewed about his interest in Indian food and then professional goals. The captions were pretty clear except for where the sentences were not separated based on the speakers; they were clustered together. \"}"}, {"time_elapsed": 577979, "trial_index": 5, "rt": 93737, "internal_node_id": "0.0-5.0", "trial_type": "survey-html-form", "responses": "{\"useful_question\":\"4\",\"enjoy_question\":\"4\",\"easy_to_follow_question\":\"4\",\"comment\":\"Chris was being interviewed at the GMA, and by the audience given his role in the movie, Thor. The captions were very clear on who was speaking and when someone else was taking over; the captions were also grammatically accurate.\"}"}, {"time_elapsed": 679588, "trial_index": 6, "rt": 101575.00000000012, "internal_node_id": "0.0-6.0", "trial_type": "survey-html-form", "responses": "{\"useful_question\":\"3\",\"enjoy_question\":\"3\",\"easy_to_follow_question\":\"3\",\"comment\":\"The little boy who is an actor in the movie, Sheldon was talking about his experience working with his coach, Jim on the Ellen Show. Even though the information was straightforward, the captions were annoying with the emojis.\"}"}, {"time_elapsed": 786434, "trial_index": 7, "rt": 106836, "internal_node_id": "0.0-7.0", "trial_type": "survey-html-form", "responses": "{\"useful_question\":\"4\",\"enjoy_question\":\"4\",\"easy_to_follow_question\":\"4\",\"comment\":\"The female speakers were discussing how the business world is still discriminatory against hiring women. The captions were easy on the eyes - I did not see any issues. \"}"}, {"time_elapsed": 891725, "trial_index": 8, "rt": 105264, "internal_node_id": "0.0-8.0", "trial_type": "survey-html-form", "responses": "{\"useful_question\":\"4\",\"enjoy_question\":\"4\",\"easy_to_follow_question\":\"4\",\"comment\":\"Mandy was being interviewed about how being in an abusive relationship had impacted her career as a musician. There were some typos in the captions and the sentences were not separated based on speakers (clustered together); however, they were still easy to follow.\"}"}, {"time_elapsed": 993045, "trial_index": 9, "rt": 101285, "internal_node_id": "0.0-9.0", "trial_type": "survey-html-form", "responses": "{\"useful_question\":\"2\",\"enjoy_question\":\"2\",\"easy_to_follow_question\":\"2\",\"comment\":\"It was of a panel discussing El Nino. The captions were annoying - I did not like the different colors - I would much rather for the captions to separate speakers by names instead.\"}"}, {"time_elapsed": 1091154, "trial_index": 10, "rt": 98078, "internal_node_id": "0.0-10.0", "trial_type": "survey-html-form", "responses": "{\"useful_question\":\"2\",\"enjoy_question\":\"2\",\"easy_to_follow_question\":\"2\",\"comment\":\"Actors from Good Boys Gone Bad television show was being interviewed by Jimmel. The captions were unpleasant to follow with the emojis and I had to rely on visual cues to see who was speaking.\"}"}, {"time_elapsed": 1188527, "trial_index": 11, "rt": 97345, "internal_node_id": "0.0-11.0", "trial_type": "survey-html-form", "responses": "{\"useful_question\":\"4\",\"enjoy_question\":\"4\",\"easy_to_follow_question\":\"4\",\"comment\":\"The panel was discussing the term, \\\"addiction\\\" and whether it was appropriate to describe the tendency to text while driving. The captions were accurate and easily followed regarding who was speaking.\"}"}, {"time_elapsed": 1263348, "trial_index": 12, "rt": 74791.99999999977, "internal_node_id": "0.0-12.0", "trial_type": "survey-html-form", "responses": "{\"useful_question\":\"4\",\"enjoy_question\":\"3\",\"easy_to_follow_question\":\"4\",\"comment\":\"The panel discussed the idea of doing homework with your children. The captions were accurate but I would have liked for the sentences to be separated when a different speaker is speaking.\"}"}, {"time_elapsed": 1267570, "trial_index": 13, "rt": 4210, "internal_node_id": "0.0-13.0", "trial_type": "survey-html-form", "responses": "{}"}]