[{"trial_type": "survey-text", "trial_index": 0, "responses": "{\"ID\":\"Si_82\"}", "rt": 123772.44999998948, "internal_node_id": "0.0-0.0", "time_elapsed": 123848}, {"trial_type": "survey-html-form", "trial_index": 1, "responses": "{\"useful_question\":\"4\",\"enjoy_question\":\"5\",\"easy_to_follow_question\":\"5\",\"comment\":\"It was a summary of questioning both actors experience of being in the movie.  I liked the different colors as in differentiating who was speaking.\"}", "rt": 138618.40000003576, "internal_node_id": "0.0-1.0", "time_elapsed": 262481}, {"trial_type": "survey-html-form", "trial_index": 2, "responses": "{\"useful_question\":\"4\",\"enjoy_question\":\"3\",\"easy_to_follow_question\":\"2\",\"comment\":\"It was an interview of Elon Musk explaining his philosophy on what he does.  My opinion is that the smiley faces weren't useful to differentiate on who was speaking.\"}", "rt": 101129.73500002408, "internal_node_id": "0.0-2.0", "time_elapsed": 363623}, {"trial_type": "survey-html-form", "trial_index": 3, "responses": "{\"useful_question\":\"4\",\"enjoy_question\":\"4\",\"easy_to_follow_question\":\"4\",\"comment\":\"It was an interview between two ladies, I didn't quite catch what the conversation was about.  The captions were a little bit distracting because I had to figure out who was speaker #1 and who was speaker #2 - that took me away from watching the conversation itself.\"}", "rt": 114447.79000000563, "internal_node_id": "0.0-3.0", "time_elapsed": 478086}, {"trial_type": "survey-html-form", "trial_index": 4, "responses": "{\"useful_question\":\"4\",\"enjoy_question\":\"4\",\"easy_to_follow_question\":\"4\",\"comment\":\"the Interview was about Nick's experience. Again, the double chevron were a bit distracting because it also had the interviewer and the actor's names on it. I couldn't quite follow the conversation because it took me a bit more time to read who actually was speaking at the time.\"}", "rt": 117046.42500000773, "internal_node_id": "0.0-4.0", "time_elapsed": 595149}, {"trial_type": "survey-html-form", "trial_index": 5, "responses": "{\"useful_question\":\"4\",\"enjoy_question\":\"4\",\"easy_to_follow_question\":\"4\",\"comment\":\"THe interview was about an audience member asking Chris what he'd like to do in addition to acting.  I do find that having different color captions helps decipher who is speaking. \"}", "rt": 75681.3550000079, "internal_node_id": "0.0-5.0", "time_elapsed": 670841}, {"trial_type": "survey-html-form", "trial_index": 6, "responses": "{\"useful_question\":\"3\",\"enjoy_question\":\"3\",\"easy_to_follow_question\":\"2\",\"comment\":\"The video was about a young actor being the younger version of Sheldon and his experience of acting along with the coaching he's receiving from Sheldon.  The emoji's aren't really that different except for the smiles which takes a bit more time to look and see the difference on who's speaking.\"}", "rt": 109780.52999998908, "internal_node_id": "0.0-6.0", "time_elapsed": 780648}, {"trial_type": "survey-html-form", "trial_index": 7, "responses": "{\"useful_question\":\"4\",\"enjoy_question\":\"3\",\"easy_to_follow_question\":\"3\",\"comment\":\"It was a group of ladies discussing women in the work field. Again, if there are several people of the same gender and the caption says \\\"female\\\", it's more difficult which woman is speaking at that time. \"}", "rt": 93223.81000005407, "internal_node_id": "0.0-7.0", "time_elapsed": 873886}, {"trial_type": "survey-html-form", "trial_index": 8, "responses": "{\"useful_question\":\"5\",\"enjoy_question\":\"5\",\"easy_to_follow_question\":\"5\",\"comment\":\"The video was about Mandy returning to making music and how she felt about it.  Having names assigned in captions definitely helps in deciphering who's speaking and who's who. \"}", "rt": 83455.8899999829, "internal_node_id": "0.0-8.0", "time_elapsed": 957359}, {"trial_type": "survey-html-form", "trial_index": 9, "responses": "{\"useful_question\":\"4\",\"enjoy_question\":\"4\",\"easy_to_follow_question\":\"4\",\"comment\":\"THe video was about El Nino/El Nina. Having colored captions assigned to a specific speaker helps decipher who is who however if there are no names introduced or if we joined in the middle of the conversation we wouldn't know whose color is whose. \"}", "rt": 92298.39999997057, "internal_node_id": "0.0-9.0", "time_elapsed": 1049667}, {"trial_type": "survey-html-form", "trial_index": 10, "responses": "{\"useful_question\":\"3\",\"enjoy_question\":\"3\",\"easy_to_follow_question\":\"2\",\"comment\":\"THe video is about young actors and their cutting school.  The emojis are too distracting and we cannot decipher who's who. \"}", "rt": 85927.19499999657, "internal_node_id": "0.0-10.0", "time_elapsed": 1135614}, {"trial_type": "survey-html-form", "trial_index": 11, "responses": "{\"useful_question\":\"4\",\"enjoy_question\":\"3\",\"easy_to_follow_question\":\"3\",\"comment\":\"the video was about being addicted to your phone.  There was only one male speaker so it was easy to decipher who was the male speaker but there was three women, we don't know which woman was speaking at that time unless the camera was pointed at the speaker.  and what if the gender identity of the speaker doesn't match what's being typed as the captions.\"}", "rt": 133568.41000000713, "internal_node_id": "0.0-11.0", "time_elapsed": 1269194}, {"trial_type": "survey-html-form", "trial_index": 12, "responses": "{\"useful_question\":\"4\",\"enjoy_question\":\"3\",\"easy_to_follow_question\":\"3\",\"comment\":\"The video was about doing too much homework and who was the best dad out of that.  The double chevron is not necessary if there already are names differentiating who is speaking.\"}", "rt": 106321.94500003243, "internal_node_id": "0.0-12.0", "time_elapsed": 1375526}, {"trial_type": "survey-html-form", "trial_index": 13, "responses": "{}", "rt": 4848.065000027418, "internal_node_id": "0.0-13.0", "time_elapsed": 1380376}]