[{"rt": 36089.890000000196, "internal_node_id": "0.0-0.0", "time_elapsed": 36244, "responses": "{\"ID\":\"SI_71\"}", "trial_type": "survey-text", "trial_index": 0}, {"rt": 110615.0149999994, "internal_node_id": "0.0-1.0", "time_elapsed": 146870, "responses": "{\"useful_question\":\"4\",\"enjoy_question\":\"4\",\"easy_to_follow_question\":\"2\",\"comment\":\"Interview with Chris Evans and Robert Downey Jr. The captions are clear but blocked the names at the beginning. \"}", "trial_type": "survey-html-form", "trial_index": 1}, {"rt": 76982.29999999964, "internal_node_id": "0.0-2.0", "time_elapsed": 223868, "responses": "{\"useful_question\":\"2\",\"enjoy_question\":\"2\",\"easy_to_follow_question\":\"2\",\"comment\":\"Interview with Stephen. The smiley face with the captions was very distracting. \"}", "trial_type": "survey-html-form", "trial_index": 2}, {"rt": 67284.17999999961, "internal_node_id": "0.0-3.0", "time_elapsed": 291162, "responses": "{\"useful_question\":\"3\",\"enjoy_question\":\"4\",\"easy_to_follow_question\":\"2\",\"comment\":\"Interview with two women. It was not clear who was woman #1 and woman #2, who was talking. \"}", "trial_type": "survey-html-form", "trial_index": 3}, {"rt": 64896.32999999961, "internal_node_id": "0.0-4.0", "time_elapsed": 356072, "responses": "{\"useful_question\":\"4\",\"enjoy_question\":\"4\",\"easy_to_follow_question\":\"4\",\"comment\":\"Interview with Nick. It was clear who was talking but the sentences were cut off and looked funny. \"}", "trial_type": "survey-html-form", "trial_index": 4}, {"rt": 82929.91000000073, "internal_node_id": "0.0-5.0", "time_elapsed": 439025, "responses": "{\"useful_question\":\"5\",\"enjoy_question\":\"4\",\"easy_to_follow_question\":\"5\",\"comment\":\"Interview with Chris Hemsworth. The color clearly showed who was talking which is helpful--but the red color with black background is harder to read than other colors. \"}", "trial_type": "survey-html-form", "trial_index": 5}, {"rt": 94769.15499999991, "internal_node_id": "0.0-6.0", "time_elapsed": 533806, "responses": "{\"useful_question\":\"2\",\"enjoy_question\":\"4\",\"easy_to_follow_question\":\"2\",\"comment\":\"Interview with old and new Sheldon and Ellen. The smileys are distracting and the font is too bold--thinner fonts are easier to see. \"}", "trial_type": "survey-html-form", "trial_index": 6}, {"rt": 68181.60499999975, "internal_node_id": "0.0-7.0", "time_elapsed": 602002, "responses": "{\"useful_question\":\"5\",\"enjoy_question\":\"4\",\"easy_to_follow_question\":\"5\",\"comment\":\"Interview with three different women. Captions were clear, showed who was talking and the audience laughter. \"}", "trial_type": "survey-html-form", "trial_index": 7}, {"rt": 87404.4850000001, "internal_node_id": "0.0-8.0", "time_elapsed": 689415, "responses": "{\"useful_question\":\"4\",\"enjoy_question\":\"4\",\"easy_to_follow_question\":\"3\",\"comment\":\"Interview with Mandy. The captions were clear but when the interviewer interrupted Mandy, it was short so I couldn't catch what she said. \"}", "trial_type": "survey-html-form", "trial_index": 8}, {"rt": 77020.61499999953, "internal_node_id": "0.0-9.0", "time_elapsed": 766445, "responses": "{\"useful_question\":\"2\",\"enjoy_question\":\"3\",\"easy_to_follow_question\":\"2\",\"comment\":\"Different people chatting on the news about the weather. The colors were not clear about who was talking and some are hard to see like the red with black background. \"}", "trial_type": "survey-html-form", "trial_index": 9}, {"rt": 96073.33500000008, "internal_node_id": "0.0-10.0", "time_elapsed": 862543, "responses": "{\"useful_question\":\"1\",\"enjoy_question\":\"2\",\"easy_to_follow_question\":\"1\",\"comment\":\"Good boys gone bad interview with Stephen Colbert. The smileys were distracting, it was hard to follow who was talking, and the captions didn't catch everything the boys were saying.\"}", "trial_type": "survey-html-form", "trial_index": 10}, {"rt": 114498.11500000034, "internal_node_id": "0.0-11.0", "time_elapsed": 977073, "responses": "{\"useful_question\":\"4\",\"enjoy_question\":\"4\",\"easy_to_follow_question\":\"4\",\"comment\":\"News people talking about phone addiction. The captions were easy to follow and indicated who was talking.  \"}", "trial_type": "survey-html-form", "trial_index": 11}, {"rt": 87567.80999999947, "internal_node_id": "0.0-12.0", "time_elapsed": 1064651, "responses": "{\"useful_question\":\"4\",\"enjoy_question\":\"4\",\"easy_to_follow_question\":\"4\",\"comment\":\"News people chatting about homework. The captions were generally easy to follow, used someone's last name instead of their first so that was a bit confusing who was talking. \"}", "trial_type": "survey-html-form", "trial_index": 12}, {"rt": 4491.044999999693, "internal_node_id": "0.0-13.0", "time_elapsed": 1069146, "responses": "{}", "trial_type": "survey-html-form", "trial_index": 13}]