[{"rt": 5631, "trial_index": 0, "time_elapsed": 5683, "trial_type": "survey-text", "internal_node_id": "0.0-0.0", "responses": "{\"ID\":\"SI_54\"}"}, {"rt": 115752.00000000001, "trial_index": 1, "time_elapsed": 121464, "trial_type": "survey-html-form", "internal_node_id": "0.0-1.0", "responses": "{\"useful_question\":\"5\",\"enjoy_question\":\"4\",\"easy_to_follow_question\":\"5\",\"comment\":\"Captain America and Iron man is explaining how they was intimated with their action and with each other. My opinion is for the closed captioned need to be the black and yellow not red because of the DeafBlind person will be having the hard time reading the closed caption if it red and not visible. \"}"}, {"rt": 188271, "trial_index": 2, "time_elapsed": 309774, "trial_type": "survey-html-form", "internal_node_id": "0.0-2.0", "responses": "{\"useful_question\":\"4\",\"enjoy_question\":\"4\",\"easy_to_follow_question\":\"3\",\"comment\":\"The man is asking Tony Stark as how he trying to save the world and ask him for his different perspective if he was a villain. My opinion is that the closed caption is good and clear as visible as I noticed it going too fast as not connecting to the same person with their statement. \"}"}, {"rt": 138781.99999999994, "trial_index": 3, "time_elapsed": 448595, "trial_type": "survey-html-form", "internal_node_id": "0.0-3.0", "responses": "{\"useful_question\":\"3\",\"enjoy_question\":\"3\",\"easy_to_follow_question\":\"3\",\"comment\":\"Both of the females is talking about themselves or each other. My opinion the close caption is not clear at all. See some of the misfont text as some of the text caption is capitalize while other lowercase.\"}"}, {"rt": 122842, "trial_index": 4, "time_elapsed": 571478, "trial_type": "survey-html-form", "internal_node_id": "0.0-4.0", "responses": "{\"useful_question\":\"5\",\"enjoy_question\":\"4\",\"easy_to_follow_question\":\"5\",\"comment\":\"Nick Jonas is answering the reporter a question about his favorite food. My option too much of the special character letter throughout the caption as it need to be delete as it is very distracting. \"}"}, {"rt": 136853, "trial_index": 5, "time_elapsed": 708385, "trial_type": "survey-html-form", "internal_node_id": "0.0-5.0", "responses": "{\"useful_question\":\"2\",\"enjoy_question\":\"2\",\"easy_to_follow_question\":\"3\",\"comment\":\"The audience is a big fan of Thor as he is her special character. The caption is a no way clear caption. it is hard for me to see clearly with the blue fonts. \"}"}, {"rt": 135333, "trial_index": 6, "time_elapsed": 843755, "trial_type": "survey-html-form", "internal_node_id": "0.0-6.0", "responses": "{\"useful_question\":\"5\",\"enjoy_question\":\"5\",\"easy_to_follow_question\":\"5\",\"comment\":\"The little boy is following the footstep of Sheldon as his amazing coach. The caption is so much better and clear and background of the voice is so understanding and clear. \"}"}, {"rt": 90886, "trial_index": 7, "time_elapsed": 934682, "trial_type": "survey-html-form", "internal_node_id": "0.0-7.0", "responses": "{\"useful_question\":\"4\",\"enjoy_question\":\"4\",\"easy_to_follow_question\":\"3\",\"comment\":\"The woman is explaining about herself. my opinion is still valid as it is good and perfectly clear . \"}"}, {"rt": 128045, "trial_index": 8, "time_elapsed": 1062783, "trial_type": "survey-html-form", "internal_node_id": "0.0-8.0", "responses": "{\"useful_question\":\"4\",\"enjoy_question\":\"4\",\"easy_to_follow_question\":\"4\",\"comment\":\"The video is explaining the marathon. The close caption is too large and too wide as it need to be a normal original caption. this caption is fit for a person who can't see the normal fonts.\"}"}, {"rt": 130136, "trial_index": 9, "time_elapsed": 1192960, "trial_type": "survey-html-form", "internal_node_id": "0.0-9.0", "responses": "{\"useful_question\":\"1\",\"enjoy_question\":\"1\",\"easy_to_follow_question\":\"1\",\"comment\":\"This video is explaining the female name as create the sound of name. My opinion as for this close caption is AWFUL as it applied different caption color to individual and not caption accessible. \"}"}, {"rt": 105748, "trial_index": 10, "time_elapsed": 1298754, "trial_type": "survey-html-form", "internal_node_id": "0.0-10.0", "responses": "{\"useful_question\":\"3\",\"enjoy_question\":\"3\",\"easy_to_follow_question\":\"3\",\"comment\":\"The three boys is explaining their action as if they misbehave or sworn to their parent. The caption is good as original fonts but fast pace of the caption\"}"}, {"rt": 103519, "trial_index": 11, "time_elapsed": 1402303, "trial_type": "survey-html-form", "internal_node_id": "0.0-11.0", "responses": "{\"useful_question\":\"5\",\"enjoy_question\":\"5\",\"easy_to_follow_question\":\"5\",\"comment\":\"In this video everyone is talking about their addiction. The caption is fine to me as no mentioned is needed \"}"}, {"rt": 107828, "trial_index": 12, "time_elapsed": 1510173, "trial_type": "survey-html-form", "internal_node_id": "0.0-12.0", "responses": "{\"useful_question\":\"4\",\"enjoy_question\":\"4\",\"easy_to_follow_question\":\"4\",\"comment\":\"The video is talking about how much she is upset about the calculus. The caption Is great and clear of understanding.\"}"}, {"rt": 3894, "trial_index": 13, "time_elapsed": 1514068, "trial_type": "survey-html-form", "internal_node_id": "0.0-13.0", "responses": "{}"}]