[{"time_elapsed": 238275, "trial_index": 0, "responses": "{\"ID\":\"SI_77\"}", "trial_type": "survey-text", "rt": 238213.3, "internal_node_id": "0.0-0.0"}, {"time_elapsed": 422774, "trial_index": 1, "responses": "{\"useful_question\":\"4\",\"enjoy_question\":\"4\",\"easy_to_follow_question\":\"2\",\"comment\":\"The captions switched between actors too fast.  I was able to follow some of the story.\"}", "trial_type": "survey-html-form", "rt": 184081.39999999997, "internal_node_id": "0.0-1.0"}, {"time_elapsed": 560535, "trial_index": 2, "responses": "{\"useful_question\":\"4\",\"enjoy_question\":\"5\",\"easy_to_follow_question\":\"4\",\"comment\":\"Two people discussed different technologies.  The captions were clear but ithey did not show who was talking.\"}", "trial_type": "survey-html-form", "rt": 137671.80000000005, "internal_node_id": "0.0-2.0"}, {"time_elapsed": 641879, "trial_index": 3, "responses": "{\"useful_question\":\"4\",\"enjoy_question\":\"4\",\"easy_to_follow_question\":\"4\",\"comment\":\"The video talked about talking with managers.  The captions were fast but showed who was tlaking.\"}", "trial_type": "survey-html-form", "rt": 81232.79999999993, "internal_node_id": "0.0-3.0"}, {"time_elapsed": 727442, "trial_index": 4, "responses": "{\"useful_question\":\"5\",\"enjoy_question\":\"5\",\"easy_to_follow_question\":\"5\",\"comment\":\"The video was done as an iterview.  The cacaptions followed the spaekers well.\"}", "trial_type": "survey-html-form", "rt": 85415.3999999999, "internal_node_id": "0.0-4.0"}, {"time_elapsed": 801916, "trial_index": 5, "responses": "{\"useful_question\":\"2\",\"enjoy_question\":\"2\",\"easy_to_follow_question\":\"2\",\"comment\":\"The audience was asking the guy questions.  The colored captions were hard to follow.\"}", "trial_type": "survey-html-form", "rt": 74357.59999999998, "internal_node_id": "0.0-5.0"}, {"time_elapsed": 884592, "trial_index": 6, "responses": "{\"useful_question\":\"5\",\"enjoy_question\":\"5\",\"easy_to_follow_question\":\"5\",\"comment\":\"They talked about the Sheldon coach.  The captions were clear and easy to follow.\"}", "trial_type": "survey-html-form", "rt": 82576.09999999998, "internal_node_id": "0.0-6.0"}, {"time_elapsed": 984434, "trial_index": 7, "responses": "{\"useful_question\":\"4\",\"enjoy_question\":\"4\",\"easy_to_follow_question\":\"3\",\"comment\":\"They talked about the CEO and men/woman role.  The captions was short and I did not get the full story.\"}", "trial_type": "survey-html-form", "rt": 99741.5, "internal_node_id": "0.0-7.0"}, {"time_elapsed": 1066170, "trial_index": 8, "responses": "{\"useful_question\":\"5\",\"enjoy_question\":\"5\",\"easy_to_follow_question\":\"4\",\"comment\":\"Mandy talking about the divorce and hardships.  The captions were fast but showed who was talking.\"}", "trial_type": "survey-html-form", "rt": 81593.69999999995, "internal_node_id": "0.0-8.0"}, {"time_elapsed": 1157055, "trial_index": 9, "responses": "{\"useful_question\":\"4\",\"enjoy_question\":\"4\",\"easy_to_follow_question\":\"3\",\"comment\":\"Tjey talked about the EL nino and bikini in Februiary.  The colored captions did not help me.  I mean the ise of various colors.\"}", "trial_type": "survey-html-form", "rt": 90797.5, "internal_node_id": "0.0-9.0"}, {"time_elapsed": 1253238, "trial_index": 10, "responses": "{\"useful_question\":\"5\",\"enjoy_question\":\"5\",\"easy_to_follow_question\":\"5\",\"comment\":\"The boys were asked about doing bad things.  The captions were great and easy to follow.\"}", "trial_type": "survey-html-form", "rt": 96079.80000000005, "internal_node_id": "0.0-10.0"}, {"time_elapsed": 1323215, "trial_index": 11, "responses": "{\"useful_question\":\"5\",\"enjoy_question\":\"5\",\"easy_to_follow_question\":\"5\",\"comment\":\"They discussed texting and driving.  The captions were clear!\"}", "trial_type": "survey-html-form", "rt": 69881.19999999995, "internal_node_id": "0.0-11.0"}, {"time_elapsed": 1404301, "trial_index": 12, "responses": "{\"useful_question\":\"5\",\"enjoy_question\":\"5\",\"easy_to_follow_question\":\"5\",\"comment\":\"They talked about doing homework with the kids.  The captions were easy to follow.\"}", "trial_type": "survey-html-form", "rt": 80971.09999999986, "internal_node_id": "0.0-12.0"}, {"time_elapsed": 1409565, "trial_index": 13, "responses": "{}", "trial_type": "survey-html-form", "rt": 5261.199999999953, "internal_node_id": "0.0-13.0"}]