[{"trial_index": 0, "responses": "{\"ID\":\"SI_60\"}", "trial_type": "survey-text", "time_elapsed": 193843, "rt": 193470.88999999687, "internal_node_id": "0.0-0.0"}, {"trial_index": 1, "responses": "{\"useful_question\":\"5\",\"enjoy_question\":\"5\",\"easy_to_follow_question\":\"3\",\"comment\":\"It needs to separted sentinces. \"}", "trial_type": "survey-html-form", "time_elapsed": 297003, "rt": 103104.75999978371, "internal_node_id": "0.0-1.0"}, {"trial_index": 2, "responses": "{\"useful_question\":\"4\",\"enjoy_question\":\"4\",\"easy_to_follow_question\":\"3\",\"comment\":\"Emoj is a little clear, is it laugh? Or a big smile?\"}", "trial_type": "survey-html-form", "time_elapsed": 482191, "rt": 185150.07000020705, "internal_node_id": "0.0-2.0"}, {"trial_index": 3, "responses": "{\"useful_question\":\"2\",\"enjoy_question\":\"1\",\"easy_to_follow_question\":\"2\",\"comment\":\"She talks about \\\"talk\\\" things, continue to talk about \\\"talk\\\" keep say it. My opinion is not clear and little confused.\"}", "trial_type": "survey-html-form", "time_elapsed": 613986, "rt": 131751.69999990612, "internal_node_id": "0.0-3.0"}, {"trial_index": 4, "responses": "{\"useful_question\":\"3\",\"enjoy_question\":\"2\",\"easy_to_follow_question\":\"2\",\"comment\":\"He wants be professional in the future. My opinion is not together sentences with names. It is better to separate paragraphs.\"}", "trial_type": "survey-html-form", "time_elapsed": 715597, "rt": 101560.62500015832, "internal_node_id": "0.0-4.0"}, {"trial_index": 5, "responses": "{\"useful_question\":\"5\",\"enjoy_question\":\"5\",\"easy_to_follow_question\":\"4\",\"comment\":\"They talk about actor, dance, etc. My opinion is very clear and make senses. \"}", "trial_type": "survey-html-form", "time_elapsed": 787388, "rt": 71721.19499999098, "internal_node_id": "0.0-5.0"}, {"trial_index": 6, "responses": "{\"useful_question\":\"1\",\"enjoy_question\":\"1\",\"easy_to_follow_question\":\"1\",\"comment\":\"They talk about happy things (I do not understand). My opinion is boring sentences like same (the example is over again, over again, etc).\"}", "trial_type": "survey-html-form", "time_elapsed": 932485, "rt": 145082.51500013284, "internal_node_id": "0.0-6.0"}, {"trial_index": 7, "responses": "{\"useful_question\":\"3\",\"enjoy_question\":\"4\",\"easy_to_follow_question\":\"3\",\"comment\":\"They talk about women gets low wages in the general. Because of men got ECO like engineering degree. My opinion is a little understand and little lost. \"}", "trial_type": "survey-html-form", "time_elapsed": 1060873, "rt": 128360.4700001888, "internal_node_id": "0.0-7.0"}, {"trial_index": 8, "responses": "{\"useful_question\":\"5\",\"enjoy_question\":\"4\",\"easy_to_follow_question\":\"5\",\"comment\":\"They talk about music, singer, and work. My opinion is caption is better and very easy to follow it. But names' together need separate. \"}", "trial_type": "survey-html-form", "time_elapsed": 1173710, "rt": 112809.40999998711, "internal_node_id": "0.0-8.0"}, {"trial_index": 9, "responses": "{\"useful_question\":\"5\",\"enjoy_question\":\"5\",\"easy_to_follow_question\":\"4\",\"comment\":\"(I do not understand). My opinion is that colors are good idea in separate sentences. I suggest that blue is too dark, need lights. \"}", "trial_type": "survey-html-form", "time_elapsed": 1307589, "rt": 133861.98000004515, "internal_node_id": "0.0-9.0"}, {"trial_index": 10, "responses": "{\"useful_question\":\"1\",\"enjoy_question\":\"1\",\"easy_to_follow_question\":\"1\",\"comment\":\"They talk about parent, etc. My opinion is emji that it is hard follows because it makes me distracting and lead to missed informations. \"}", "trial_type": "survey-html-form", "time_elapsed": 1424638, "rt": 117035.48499988392, "internal_node_id": "0.0-10.0"}, {"trial_index": 11, "responses": "{\"useful_question\":\"3\",\"enjoy_question\":\"2\",\"easy_to_follow_question\":\"2\",\"comment\":\"They talk about danger to drive, alcohol, psychology. My opinion is male speakers/female speakers, the answer is no because who talks? It is better with real name that he says/she says.\"}", "trial_type": "survey-html-form", "time_elapsed": 1624904, "rt": 200228.20500005037, "internal_node_id": "0.0-11.0"}, {"trial_index": 12, "responses": "{\"useful_question\":\"4\",\"enjoy_question\":\"4\",\"easy_to_follow_question\":\"3\",\"comment\":\"They talk about school, homework, parents, etc. My opinion is caption is very good and it is ok that names continues togethers. It is like organization. \"}", "trial_type": "survey-html-form", "time_elapsed": 1750494, "rt": 125554.71500009298, "internal_node_id": "0.0-12.0"}, {"trial_index": 13, "responses": "{}", "trial_type": "survey-html-form", "time_elapsed": 1756048, "rt": 5551.570000126958, "internal_node_id": "0.0-13.0"}]