[{"rt": 82533, "trial_type": "survey-text", "responses": "{\"ID\":\"SI_97\"}", "internal_node_id": "0.0-0.0", "time_elapsed": 82548, "trial_index": 0}, {"rt": 12009, "trial_type": "survey-html-form", "responses": "{\"useful_question\":\"3\",\"enjoy_question\":\"3\",\"easy_to_follow_question\":\"3\",\"comment\":\"\"}", "internal_node_id": "0.0-1.0", "time_elapsed": 94568, "trial_index": 1}, {"rt": 7318, "trial_type": "survey-html-form", "responses": "{\"useful_question\":\"3\",\"enjoy_question\":\"3\",\"easy_to_follow_question\":\"3\",\"comment\":\"\"}", "internal_node_id": "0.0-2.0", "time_elapsed": 101894, "trial_index": 2}, {"rt": 4912, "trial_type": "survey-html-form", "responses": "{\"useful_question\":\"3\",\"enjoy_question\":\"3\",\"easy_to_follow_question\":\"3\",\"comment\":\"\"}", "internal_node_id": "0.0-3.0", "time_elapsed": 106817, "trial_index": 3}, {"rt": 4749, "trial_type": "survey-html-form", "responses": "{\"useful_question\":\"3\",\"enjoy_question\":\"3\",\"easy_to_follow_question\":\"3\",\"comment\":\"\"}", "internal_node_id": "0.0-4.0", "time_elapsed": 111574, "trial_index": 4}, {"rt": 4832, "trial_type": "survey-html-form", "responses": "{\"useful_question\":\"3\",\"enjoy_question\":\"3\",\"easy_to_follow_question\":\"3\",\"comment\":\"\"}", "internal_node_id": "0.0-5.0", "time_elapsed": 116415, "trial_index": 5}, {"rt": 4350, "trial_type": "survey-html-form", "responses": "{\"useful_question\":\"3\",\"enjoy_question\":\"3\",\"easy_to_follow_question\":\"3\",\"comment\":\"\"}", "internal_node_id": "0.0-6.0", "time_elapsed": 120775, "trial_index": 6}, {"rt": 13744, "trial_type": "survey-html-form", "responses": "{\"useful_question\":\"3\",\"enjoy_question\":\"3\",\"easy_to_follow_question\":\"3\",\"comment\":\"\"}", "internal_node_id": "0.0-7.0", "time_elapsed": 134528, "trial_index": 7}, {"rt": 4295, "trial_type": "survey-html-form", "responses": "{\"useful_question\":\"3\",\"enjoy_question\":\"3\",\"easy_to_follow_question\":\"3\",\"comment\":\"\"}", "internal_node_id": "0.0-8.0", "time_elapsed": 138831, "trial_index": 8}, {"rt": 9976, "trial_type": "survey-html-form", "responses": "{\"useful_question\":\"3\",\"enjoy_question\":\"3\",\"easy_to_follow_question\":\"3\",\"comment\":\"\"}", "internal_node_id": "0.0-9.0", "time_elapsed": 148816, "trial_index": 9}, {"rt": 5062, "trial_type": "survey-html-form", "responses": "{\"useful_question\":\"3\",\"enjoy_question\":\"3\",\"easy_to_follow_question\":\"3\",\"comment\":\"\"}", "internal_node_id": "0.0-10.0", "time_elapsed": 153888, "trial_index": 10}, {"rt": 5431, "trial_type": "survey-html-form", "responses": "{\"useful_question\":\"3\",\"enjoy_question\":\"3\",\"easy_to_follow_question\":\"3\",\"comment\":\"\"}", "internal_node_id": "0.0-11.0", "time_elapsed": 159327, "trial_index": 11}, {"rt": 16030, "trial_type": "survey-html-form", "responses": "{\"useful_question\":\"3\",\"enjoy_question\":\"3\",\"easy_to_follow_question\":\"3\",\"comment\":\"\"}", "internal_node_id": "0.0-12.0", "time_elapsed": 175366, "trial_index": 12}, {"rt": 2016, "trial_type": "survey-html-form", "responses": "{}", "internal_node_id": "0.0-13.0", "time_elapsed": 177383, "trial_index": 13}]