[{"trial_type": "survey-text", "trial_index": 0, "internal_node_id": "0.0-0.0", "responses": "{\"ID\":\"5\"}", "rt": 2905.4749999922933, "time_elapsed": 3155}, {"trial_type": "survey-html-form", "trial_index": 1, "internal_node_id": "0.0-1.0", "responses": "{\"useful_question\":\"3\",\"enjoy_question\":\"3\",\"easy_to_follow_question\":\"3\",\"comment\":\"asdfadfadf\"}", "rt": 5715.259999997215, "time_elapsed": 8880}, {"trial_type": "survey-html-form", "trial_index": 2, "internal_node_id": "0.0-2.0", "responses": "{\"useful_question\":\"5\",\"enjoy_question\":\"5\",\"easy_to_follow_question\":\"4\",\"comment\":\"asdfadfadf\"}", "rt": 6921.734999996261, "time_elapsed": 15817}, {"trial_type": "survey-html-form", "trial_index": 3, "internal_node_id": "0.0-3.0", "responses": "{\"useful_question\":\"3\",\"enjoy_question\":\"4\",\"easy_to_follow_question\":\"3\",\"comment\":\"asdfadfadf\"}", "rt": 6855.584999997518, "time_elapsed": 22684}, {"trial_type": "survey-html-form", "trial_index": 4, "internal_node_id": "0.0-4.0", "responses": "{\"useful_question\":\"3\",\"enjoy_question\":\"4\",\"easy_to_follow_question\":\"3\",\"comment\":\"yrtyrtyr\"}", "rt": 5531.505000006291, "time_elapsed": 28226}, {"trial_type": "survey-html-form", "trial_index": 5, "internal_node_id": "0.0-5.0", "responses": "{\"useful_question\":\"5\",\"enjoy_question\":\"4\",\"easy_to_follow_question\":\"4\",\"comment\":\"asdfadfadf\"}", "rt": 6538.4849999973085, "time_elapsed": 34775}, {"trial_type": "survey-html-form", "trial_index": 6, "internal_node_id": "0.0-6.0", "responses": "{\"useful_question\":\"3\",\"enjoy_question\":\"4\",\"easy_to_follow_question\":\"3\",\"comment\":\"yrtyrtyr\"}", "rt": 5639.660000000731, "time_elapsed": 40424}, {"trial_type": "survey-html-form", "trial_index": 7, "internal_node_id": "0.0-7.0", "responses": "{\"useful_question\":\"3\",\"enjoy_question\":\"3\",\"easy_to_follow_question\":\"3\",\"comment\":\"asdfadfadf\"}", "rt": 6032.8000000008615, "time_elapsed": 46466}, {"trial_type": "survey-html-form", "trial_index": 8, "internal_node_id": "0.0-8.0", "responses": "{\"useful_question\":\"4\",\"enjoy_question\":\"4\",\"easy_to_follow_question\":\"4\",\"comment\":\"yrtyrtyr\"}", "rt": 5860.430000000633, "time_elapsed": 52335}, {"trial_type": "survey-html-form", "trial_index": 9, "internal_node_id": "0.0-9.0", "responses": "{\"useful_question\":\"4\",\"enjoy_question\":\"4\",\"easy_to_follow_question\":\"4\",\"comment\":\"yrtyrtyr\"}", "rt": 6467.304999998305, "time_elapsed": 58811}, {"trial_type": "survey-html-form", "trial_index": 10, "internal_node_id": "0.0-10.0", "responses": "{\"useful_question\":\"5\",\"enjoy_question\":\"5\",\"easy_to_follow_question\":\"5\",\"comment\":\"yrtyrtyr\"}", "rt": 7515.654999995604, "time_elapsed": 66335}, {"trial_type": "survey-html-form", "trial_index": 11, "internal_node_id": "0.0-11.0", "responses": "{\"useful_question\":\"4\",\"enjoy_question\":\"5\",\"easy_to_follow_question\":\"4\",\"comment\":\"asdfadfadf\"}", "rt": 6860.70999999356, "time_elapsed": 73205}, {"trial_type": "survey-html-form", "trial_index": 12, "internal_node_id": "0.0-12.0", "responses": "{\"useful_question\":\"5\",\"enjoy_question\":\"5\",\"easy_to_follow_question\":\"5\",\"comment\":\"asdfadfadf\"}", "rt": 5917.795000001206, "time_elapsed": 79133}, {"trial_type": "survey-html-form", "trial_index": 13, "internal_node_id": "0.0-13.0", "responses": "{}", "rt": 1625.1150000025518, "time_elapsed": 80761}]