[{"time_elapsed": 2243, "trial_type": "survey-text", "internal_node_id": "0.0-0.0", "responses": "{\"ID\":\"5\"}", "rt": 2230.6899999966845, "trial_index": 0}, {"time_elapsed": 11914, "trial_type": "survey-html-form", "internal_node_id": "0.0-1.0", "responses": "{\"useful_question\":\"3\",\"enjoy_question\":\"3\",\"easy_to_follow_question\":\"3\",\"comment\":\"yrtyrtyr\"}", "rt": 9660.624999996799, "trial_index": 1}, {"time_elapsed": 18188, "trial_type": "survey-html-form", "internal_node_id": "0.0-2.0", "responses": "{\"useful_question\":\"3\",\"enjoy_question\":\"4\",\"easy_to_follow_question\":\"3\",\"comment\":\"yrtyrtyr\"}", "rt": 6267.2399999937625, "trial_index": 2}, {"time_elapsed": 25342, "trial_type": "survey-html-form", "internal_node_id": "0.0-3.0", "responses": "{\"useful_question\":\"3\",\"enjoy_question\":\"3\",\"easy_to_follow_question\":\"4\",\"comment\":\"yrtyrtyr\"}", "rt": 7146.260000001348, "trial_index": 3}, {"time_elapsed": 31593, "trial_type": "survey-html-form", "internal_node_id": "0.0-4.0", "responses": "{\"useful_question\":\"3\",\"enjoy_question\":\"4\",\"easy_to_follow_question\":\"3\",\"comment\":\"yrtyrtyr\"}", "rt": 6243.010000005597, "trial_index": 4}, {"time_elapsed": 38014, "trial_type": "survey-html-form", "internal_node_id": "0.0-5.0", "responses": "{\"useful_question\":\"3\",\"enjoy_question\":\"4\",\"easy_to_follow_question\":\"4\",\"comment\":\"yrtyrtyr\"}", "rt": 6412.680000001274, "trial_index": 5}, {"time_elapsed": 44474, "trial_type": "survey-html-form", "internal_node_id": "0.0-6.0", "responses": "{\"useful_question\":\"3\",\"enjoy_question\":\"3\",\"easy_to_follow_question\":\"3\",\"comment\":\"asdfadfadf\"}", "rt": 6451.325000001816, "trial_index": 6}, {"time_elapsed": 50686, "trial_type": "survey-html-form", "internal_node_id": "0.0-7.0", "responses": "{\"useful_question\":\"3\",\"enjoy_question\":\"4\",\"easy_to_follow_question\":\"4\",\"comment\":\"yrtyrtyr\"}", "rt": 6202.355000001262, "trial_index": 7}, {"time_elapsed": 58647, "trial_type": "survey-html-form", "internal_node_id": "0.0-8.0", "responses": "{\"useful_question\":\"5\",\"enjoy_question\":\"4\",\"easy_to_follow_question\":\"4\",\"comment\":\"asdfadfadf\"}", "rt": 7952.975000000151, "trial_index": 8}, {"time_elapsed": 94767, "trial_type": "survey-html-form", "internal_node_id": "0.0-9.0", "responses": "{\"useful_question\":\"3\",\"enjoy_question\":\"3\",\"easy_to_follow_question\":\"4\",\"comment\":\"asdfadfadf\"}", "rt": 36110.5699999971, "trial_index": 9}, {"time_elapsed": 115902, "trial_type": "survey-html-form", "internal_node_id": "0.0-10.0", "responses": "{\"useful_question\":\"4\",\"enjoy_question\":\"4\",\"easy_to_follow_question\":\"4\",\"comment\":\"asdfadfadf\"}", "rt": 21126.809999994293, "trial_index": 10}, {"time_elapsed": 136776, "trial_type": "survey-html-form", "internal_node_id": "0.0-11.0", "responses": "{\"useful_question\":\"4\",\"enjoy_question\":\"4\",\"easy_to_follow_question\":\"3\",\"comment\":\"asdfadfadf\"}", "rt": 20863.799999999173, "trial_index": 11}, {"time_elapsed": 151929, "trial_type": "survey-html-form", "internal_node_id": "0.0-12.0", "responses": "{\"useful_question\":\"3\",\"enjoy_question\":\"4\",\"easy_to_follow_question\":\"5\",\"comment\":\"yrtyrtyr\"}", "rt": 15144.124999998894, "trial_index": 12}, {"time_elapsed": 153551, "trial_type": "survey-html-form", "internal_node_id": "0.0-13.0", "responses": "{}", "rt": 1620.520000004035, "trial_index": 13}]