[{"rt": 64522.485000001325, "responses": "{\"ID\":\"5\"}", "trial_type": "survey-text", "trial_index": 0, "time_elapsed": 64537, "internal_node_id": "0.0-0.0"}, {"rt": 6090.325000004668, "responses": "{\"useful_question\":\"1\",\"enjoy_question\":\"2\",\"easy_to_follow_question\":\"2\",\"comment\":\"\"}", "trial_type": "survey-html-form", "trial_index": 1, "time_elapsed": 70636, "internal_node_id": "0.0-1.0"}, {"rt": 7194.130000003497, "responses": "{\"useful_question\":\"3\",\"enjoy_question\":\"3\",\"easy_to_follow_question\":\"2\",\"comment\":\"asdfadfadf\"}", "trial_type": "survey-html-form", "trial_index": 2, "time_elapsed": 77841, "internal_node_id": "0.0-2.0"}, {"rt": 7038.490000006277, "responses": "{\"useful_question\":\"1\",\"enjoy_question\":\"1\",\"easy_to_follow_question\":\"1\",\"comment\":\"asdfadfadf\"}", "trial_type": "survey-html-form", "trial_index": 3, "time_elapsed": 84894, "internal_node_id": "0.0-3.0"}, {"rt": 7297.8300000031595, "responses": "{\"useful_question\":\"5\",\"enjoy_question\":\"5\",\"easy_to_follow_question\":\"5\",\"comment\":\"asdfadfadf\"}", "trial_type": "survey-html-form", "trial_index": 4, "time_elapsed": 92205, "internal_node_id": "0.0-4.0"}, {"rt": 6626.524999999674, "responses": "{\"useful_question\":\"5\",\"enjoy_question\":\"4\",\"easy_to_follow_question\":\"4\",\"comment\":\"asdfadfadf\"}", "trial_type": "survey-html-form", "trial_index": 5, "time_elapsed": 98847, "internal_node_id": "0.0-5.0"}, {"rt": 7975.8550000042305, "responses": "{\"useful_question\":\"4\",\"enjoy_question\":\"4\",\"easy_to_follow_question\":\"4\",\"comment\":\"asdfadfadf\"}", "trial_type": "survey-html-form", "trial_index": 6, "time_elapsed": 106835, "internal_node_id": "0.0-6.0"}, {"rt": 7279.594999999972, "responses": "{\"useful_question\":\"1\",\"enjoy_question\":\"2\",\"easy_to_follow_question\":\"3\",\"comment\":\"\"}", "trial_type": "survey-html-form", "trial_index": 7, "time_elapsed": 114129, "internal_node_id": "0.0-7.0"}, {"rt": 5060.199999999895, "responses": "{\"useful_question\":\"4\",\"enjoy_question\":\"4\",\"easy_to_follow_question\":\"4\",\"comment\":\"\"}", "trial_type": "survey-html-form", "trial_index": 8, "time_elapsed": 119201, "internal_node_id": "0.0-8.0"}, {"rt": 4923.154999996768, "responses": "{\"useful_question\":\"4\",\"enjoy_question\":\"4\",\"easy_to_follow_question\":\"4\",\"comment\":\"\"}", "trial_type": "survey-html-form", "trial_index": 9, "time_elapsed": 124134, "internal_node_id": "0.0-9.0"}, {"rt": 4826.114999996207, "responses": "{\"useful_question\":\"4\",\"enjoy_question\":\"4\",\"easy_to_follow_question\":\"4\",\"comment\":\"\"}", "trial_type": "survey-html-form", "trial_index": 10, "time_elapsed": 128970, "internal_node_id": "0.0-10.0"}, {"rt": 4388.455000000249, "responses": "{\"useful_question\":\"5\",\"enjoy_question\":\"5\",\"easy_to_follow_question\":\"5\",\"comment\":\"\"}", "trial_type": "survey-html-form", "trial_index": 11, "time_elapsed": 133367, "internal_node_id": "0.0-11.0"}, {"rt": 4623.424999997951, "responses": "{\"useful_question\":\"5\",\"enjoy_question\":\"4\",\"easy_to_follow_question\":\"5\",\"comment\":\"\"}", "trial_type": "survey-html-form", "trial_index": 12, "time_elapsed": 138000, "internal_node_id": "0.0-12.0"}, {"rt": 3023.4700000000885, "responses": "{}", "trial_type": "survey-html-form", "trial_index": 13, "time_elapsed": 141025, "internal_node_id": "0.0-13.0"}]