[{"rt": 2897.710000004736, "responses": "{\"ID\":\"7\"}", "trial_type": "survey-text", "trial_index": 0, "time_elapsed": 2908, "internal_node_id": "0.0-0.0"}, {"rt": 5161.439999996219, "responses": "{\"useful_question\":\"3\",\"enjoy_question\":\"3\",\"easy_to_follow_question\":\"3\",\"comment\":\"\"}", "trial_type": "survey-html-form", "trial_index": 1, "time_elapsed": 8079, "internal_node_id": "0.0-1.0"}, {"rt": 4841.23499999987, "responses": "{\"useful_question\":\"5\",\"enjoy_question\":\"4\",\"easy_to_follow_question\":\"4\",\"comment\":\"\"}", "trial_type": "survey-html-form", "trial_index": 2, "time_elapsed": 12932, "internal_node_id": "0.0-2.0"}, {"rt": 5397.790000002715, "responses": "{\"useful_question\":\"5\",\"enjoy_question\":\"5\",\"easy_to_follow_question\":\"5\",\"comment\":\"\"}", "trial_type": "survey-html-form", "trial_index": 3, "time_elapsed": 18338, "internal_node_id": "0.0-3.0"}, {"rt": 4710.764999996172, "responses": "{\"useful_question\":\"5\",\"enjoy_question\":\"4\",\"easy_to_follow_question\":\"5\",\"comment\":\"\"}", "trial_type": "survey-html-form", "trial_index": 4, "time_elapsed": 23061, "internal_node_id": "0.0-4.0"}, {"rt": 4848.469999997178, "responses": "{\"useful_question\":\"5\",\"enjoy_question\":\"4\",\"easy_to_follow_question\":\"4\",\"comment\":\"\"}", "trial_type": "survey-html-form", "trial_index": 5, "time_elapsed": 27918, "internal_node_id": "0.0-5.0"}, {"rt": 5096.075000001292, "responses": "{\"useful_question\":\"5\",\"enjoy_question\":\"4\",\"easy_to_follow_question\":\"4\",\"comment\":\"\"}", "trial_type": "survey-html-form", "trial_index": 6, "time_elapsed": 33025, "internal_node_id": "0.0-6.0"}, {"rt": 4240.415000000212, "responses": "{\"useful_question\":\"4\",\"enjoy_question\":\"4\",\"easy_to_follow_question\":\"4\",\"comment\":\"\"}", "trial_type": "survey-html-form", "trial_index": 7, "time_elapsed": 37275, "internal_node_id": "0.0-7.0"}, {"rt": 5113.8149999969755, "responses": "{\"useful_question\":\"5\",\"enjoy_question\":\"4\",\"easy_to_follow_question\":\"4\",\"comment\":\"\"}", "trial_type": "survey-html-form", "trial_index": 8, "time_elapsed": 42399, "internal_node_id": "0.0-8.0"}, {"rt": 4657.724999997299, "responses": "{\"useful_question\":\"5\",\"enjoy_question\":\"4\",\"easy_to_follow_question\":\"4\",\"comment\":\"\"}", "trial_type": "survey-html-form", "trial_index": 9, "time_elapsed": 47065, "internal_node_id": "0.0-9.0"}, {"rt": 4429.2700000005425, "responses": "{\"useful_question\":\"4\",\"enjoy_question\":\"4\",\"easy_to_follow_question\":\"4\",\"comment\":\"\"}", "trial_type": "survey-html-form", "trial_index": 10, "time_elapsed": 51503, "internal_node_id": "0.0-10.0"}, {"rt": 4088.0400000023656, "responses": "{\"useful_question\":\"5\",\"enjoy_question\":\"4\",\"easy_to_follow_question\":\"4\",\"comment\":\"\"}", "trial_type": "survey-html-form", "trial_index": 11, "time_elapsed": 55600, "internal_node_id": "0.0-11.0"}, {"rt": 4936.679999998887, "responses": "{\"useful_question\":\"5\",\"enjoy_question\":\"5\",\"easy_to_follow_question\":\"4\",\"comment\":\"\"}", "trial_type": "survey-html-form", "trial_index": 12, "time_elapsed": 60545, "internal_node_id": "0.0-12.0"}, {"rt": 1348.2850000000326, "responses": "{}", "trial_type": "survey-html-form", "trial_index": 13, "time_elapsed": 61896, "internal_node_id": "0.0-13.0"}]