[{"rt": 2336.154999997234, "responses": "{\"ID\":\"4\"}", "trial_type": "survey-text", "trial_index": 0, "time_elapsed": 2347, "internal_node_id": "0.0-0.0"}, {"rt": 5560.920000003534, "responses": "{\"useful_question\":\"3\",\"enjoy_question\":\"3\",\"easy_to_follow_question\":\"3\",\"comment\":\"\"}", "trial_type": "survey-html-form", "trial_index": 1, "time_elapsed": 7918, "internal_node_id": "0.0-1.0"}, {"rt": 4166.419999994105, "responses": "{\"useful_question\":\"5\",\"enjoy_question\":\"5\",\"easy_to_follow_question\":\"5\",\"comment\":\"\"}", "trial_type": "survey-html-form", "trial_index": 2, "time_elapsed": 12095, "internal_node_id": "0.0-2.0"}, {"rt": 5003.700000001118, "responses": "{\"useful_question\":\"5\",\"enjoy_question\":\"4\",\"easy_to_follow_question\":\"5\",\"comment\":\"\"}", "trial_type": "survey-html-form", "trial_index": 3, "time_elapsed": 17107, "internal_node_id": "0.0-3.0"}, {"rt": 4502.504999996745, "responses": "{\"useful_question\":\"5\",\"enjoy_question\":\"4\",\"easy_to_follow_question\":\"5\",\"comment\":\"\"}", "trial_type": "survey-html-form", "trial_index": 4, "time_elapsed": 21619, "internal_node_id": "0.0-4.0"}, {"rt": 4091.055000004417, "responses": "{\"useful_question\":\"5\",\"enjoy_question\":\"4\",\"easy_to_follow_question\":\"5\",\"comment\":\"\"}", "trial_type": "survey-html-form", "trial_index": 5, "time_elapsed": 25720, "internal_node_id": "0.0-5.0"}, {"rt": 3581.9249999985914, "responses": "{\"useful_question\":\"4\",\"enjoy_question\":\"4\",\"easy_to_follow_question\":\"4\",\"comment\":\"\"}", "trial_type": "survey-html-form", "trial_index": 6, "time_elapsed": 29311, "internal_node_id": "0.0-6.0"}, {"rt": 4379.634999997506, "responses": "{\"useful_question\":\"4\",\"enjoy_question\":\"4\",\"easy_to_follow_question\":\"4\",\"comment\":\"\"}", "trial_type": "survey-html-form", "trial_index": 7, "time_elapsed": 33700, "internal_node_id": "0.0-7.0"}, {"rt": 4781.360000000859, "responses": "{\"useful_question\":\"5\",\"enjoy_question\":\"4\",\"easy_to_follow_question\":\"4\",\"comment\":\"\"}", "trial_type": "survey-html-form", "trial_index": 8, "time_elapsed": 38494, "internal_node_id": "0.0-8.0"}, {"rt": 4682.220000002417, "responses": "{\"useful_question\":\"5\",\"enjoy_question\":\"4\",\"easy_to_follow_question\":\"4\",\"comment\":\"\"}", "trial_type": "survey-html-form", "trial_index": 9, "time_elapsed": 43186, "internal_node_id": "0.0-9.0"}, {"rt": 5616.525000004913, "responses": "{\"useful_question\":\"5\",\"enjoy_question\":\"4\",\"easy_to_follow_question\":\"4\",\"comment\":\"\"}", "trial_type": "survey-html-form", "trial_index": 10, "time_elapsed": 48813, "internal_node_id": "0.0-10.0"}, {"rt": 4825.429999997141, "responses": "{\"useful_question\":\"5\",\"enjoy_question\":\"4\",\"easy_to_follow_question\":\"4\",\"comment\":\"\"}", "trial_type": "survey-html-form", "trial_index": 11, "time_elapsed": 53647, "internal_node_id": "0.0-11.0"}, {"rt": 7056.595000001835, "responses": "{\"useful_question\":\"5\",\"enjoy_question\":\"4\",\"easy_to_follow_question\":\"4\",\"comment\":\"\"}", "trial_type": "survey-html-form", "trial_index": 12, "time_elapsed": 60714, "internal_node_id": "0.0-12.0"}, {"rt": 1610.73999999644, "responses": "{}", "trial_type": "survey-html-form", "trial_index": 13, "time_elapsed": 62327, "internal_node_id": "0.0-13.0"}]